Index,Time,accel_x,accel_y,accel_z,mag_x,mag_y,mag_z,gyro_x,gyro_y,gyro_z,euler_x,euler_y,euler_z,linacc_x,linacc_y,linacc_z,gravity_x,gravity_y,gravity_z,quat_w,quat_x,quat_y,quat_z
0,0.000,0.090000,-0.090000,9.810000,-19.750000,5.000000,-30.250000,-0.375000,0.000000,0.062500,107.562500,0.187500,1.000000,0.080000,0.080000,-0.020000,0.030000,-0.170000,9.800000,0.590698,-0.006714,0.006348,-0.806885
1,0.060,0.070000,-0.050000,9.840000,-20.062500,3.875000,-30.687500,-0.500000,-0.125000,0.250000,107.562500,0.187500,1.000000,0.060000,0.080000,-0.010000,0.030000,-0.170000,9.800000,0.590698,-0.006714,0.006348,-0.806885
2,0.112,1.390000,-0.040000,9.790000,-19.375000,4.562500,-30.687500,0.062500,0.000000,0.125000,107.562500,0.187500,1.000000,0.050000,0.130000,-0.060000,0.030000,-0.170000,9.800000,0.590698,-0.006714,0.006348,-0.806885
3,0.164,0.100000,-0.060000,9.760000,-20.062500,3.875000,-29.875000,0.187500,-0.125000,0.000000,107.562500,0.187500,1.000000,0.070000,0.110000,-0.030000,0.030000,-0.170000,9.800000,0.590698,-0.006714,0.006348,-0.806885
4,0.217,0.070000,-0.110000,9.780000,-20.062500,4.250000,-30.250000,-0.187500,-0.125000,0.062500,107.562500,0.187500,1.000000,0.060000,0.070000,-0.030000,0.030000,-0.170000,9.800000,0.590698,-0.006714,0.006348,-0.806885
5,0.271,0.050000,-0.050000,9.800000,-20.062500,5.000000,-31.062500,0.000000,0.062500,0.062500,107.562500,0.187500,1.000000,0.040000,0.120000,0.010000,0.030000,-0.170000,9.800000,0.590698,-0.006714,0.006348,-0.806885
6,0.322,0.100000,-0.090000,9.830000,-19.750000,4.250000,-31.062500,0.375000,-0.125000,0.000000,107.562500,0.187500,1.000000,0.080000,0.110000,0.000000,0.030000,-0.170000,9.800000,0.590698,-0.006714,0.006348,-0.806885
7,0.374,0.090000,-0.100000,9.780000,-19.375000,3.875000,-31.062500,-0.250000,-0.062500,-0.062500,107.562500,0.187500,1.000000,0.070000,0.070000,0.000000,0.030000,-0.170000,9.800000,0.590698,-0.006714,0.006348,-0.806885
8,0.427,1.360000,-0.060000,9.770000,-19.375000,4.562500,-30.687500,-0.125000,0.125000,0.062500,107.562500,0.187500,1.000000,0.050000,0.100000,-0.020000,0.030000,-0.170000,9.800000,0.590698,-0.006714,0.006348,-0.806885
9,0.480,0.100000,-0.030000,9.760000,-19.750000,3.875000,-30.250000,0.250000,-0.062500,0.000000,107.562500,0.187500,1.000000,0.060000,0.120000,0.000000,0.030000,-0.170000,9.800000,0.590698,-0.006714,0.006348,-0.806885
10,0.531,1.380000,-0.080000,9.810000,-19.000000,3.875000,-29.875000,0.062500,-0.062500,-0.062500,107.562500,0.187500,1.000000,0.070000,0.080000,-0.030000,0.030000,-0.170000,9.800000,0.590698,-0.006714,0.006348,-0.806885
11,0.582,0.060000,-0.060000,9.800000,-19.750000,4.250000,-30.250000,0.125000,0.125000,0.062500,107.562500,0.187500,1.000000,0.060000,0.080000,0.000000,0.030000,-0.170000,9.800000,0.590698,-0.006714,0.006348,-0.806885
12,0.632,0.060000,-0.070000,9.820000,-19.750000,5.000000,-29.875000,0.250000,0.062500,-0.062500,107.562500,0.187500,1.000000,0.030000,0.130000,0.000000,0.030000,-0.170000,9.800000,0.590698,-0.006714,0.006348,-0.806885
13,0.684,0.110000,-0.120000,9.790000,-19.750000,4.562500,-29.875000,0.125000,0.125000,-0.062500,107.562500,0.187500,1.000000,0.060000,0.080000,0.000000,0.030000,-0.170000,9.800000,0.590698,-0.006714,0.006348,-0.806885
14,0.737,1.370000,-0.080000,9.770000,-19.375000,4.250000,-29.500000,-0.312500,-0.062500,0.000000,107.562500,0.187500,1.000000,0.060000,0.080000,-0.020000,0.030000,-0.170000,9.800000,0.590698,-0.006714,0.006348,-0.806885
15,0.791,0.080000,-0.080000,9.780000,-19.375000,4.562500,-29.875000,-0.062500,-0.062500,0.000000,107.562500,0.187500,1.000000,0.050000,0.100000,0.000000,0.030000,-0.170000,9.800000,0.590698,-0.006714,0.006348,-0.806885
16,0.845,0.100000,-0.060000,9.790000,-19.375000,4.562500,-31.062500,8.062500,-0.062500,0.000000,107.562500,0.187500,1.000000,0.060000,0.120000,0.010000,0.030000,-0.170000,9.800000,0.590698,-0.006714,0.006348,-0.806885
17,0.900,0.080000,-0.070000,9.770000,-20.500000,4.562500,-31.875000,8.125000,-0.125000,0.187500,107.562500,0.187500,1.000000,1.360000,0.100000,-0.030000,1.310000,-0.170000,9.800000,0.590698,-0.006714,0.006348,-0.806885
18,0.956,0.070000,-0.070000,9.800000,-19.750000,4.250000,-29.875000,-0.125000,0.062500,0.000000,107.562500,0.187500,1.000000,0.040000,0.080000,0.000000,0.030000,-0.170000,9.800000,0.590698,-0.006714,0.006348,-0.806885
19,1.009,0.100000,-0.060000,9.790000,-20.500000,4.562500,-29.500000,0.062500,-0.062500,0.000000,107.562500,0.187500,1.000000,0.070000,0.110000,0.000000,0.030000,-0.170000,9.800000,0.590698,-0.006714,0.006348,-0.806885
20,1.062,0.100000,-0.060000,9.800000,-19.750000,4.562500,-31.875000,0.187500,0.125000,-0.062500,107.562500,0.187500,1.000000,0.050000,0.100000,-0.010000,0.030000,-0.170000,9.800000,0.590698,-0.006714,0.006348,-0.806885
21,1.118,0.080000,-0.110000,9.790000,-19.750000,4.562500,-30.250000,-0.125000,0.062500,0.062500,107.562500,0.187500,1.000000,0.050000,0.060000,-0.010000,0.030000,-0.170000,9.800000,0.590698,-0.006714,0.006348,-0.806885
22,1.171,0.090000,-0.060000,9.770000,-19.750000,4.562500,-30.250000,0.000000,0.187500,0.000000,107.562500,0.187500,1.000000,0.050000,0.120000,0.000000,0.030000,-0.170000,9.800000,0.590698,-0.006714,0.006348,-0.806885
23,1.225,0.090000,-0.080000,9.780000,-19.750000,4.250000,-31.875000,0.062500,0.062500,0.125000,107.562500,0.187500,1.000000,0.050000,0.120000,0.000000,0.030000,-0.170000,9.800000,0.590698,-0.006714,0.006348,-0.806885
24,1.277,0.070000,-0.080000,9.790000,-19.750000,3.875000,-31.875000,-0.125000,-0.062500,0.000000,107.562500,0.187500,1.000000,0.070000,0.100000,-0.010000,0.030000,-0.170000,9.800000,0.590698,-0.006714,0.006348,-0.806885
25,1.330,1.350000,-0.060000,9.790000,-20.062500,4.250000,-29.875000,-0.062500,0.000000,0.000000,107.562500,0.187500,1.000000,1.320000,0.110000,0.000000,0.030000,-0.170000,9.800000,0.590698,-0.006714,0.006348,-0.806885
26,1.382,0.090000,-0.070000,9.790000,-20.062500,3.875000,-30.250000,0.000000,0.125000,0.000000,107.562500,0.187500,1.000000,0.060000,0.100000,0.000000,0.030000,-0.170000,9.800000,0.590698,-0.006714,0.006348,-0.806885
27,1.433,1.360000,-0.060000,9.820000,-19.750000,3.875000,-30.250000,-0.062500,0.000000,-0.125000,107.562500,0.187500,1.000000,1.360000,0.080000,0.000000,0.030000,-0.170000,9.800000,0.590698,-0.006714,0.006348,-0.806885
28,1.485,0.090000,-0.060000,9.810000,-19.750000,5.000000,-29.500000,0.000000,0.000000,0.000000,107.562500,0.187500,1.000000,0.040000,0.080000,0.000000,0.030000,-0.170000,9.800000,0.590698,-0.006714,0.006348,-0.806885
29,1.538,0.070000,-0.060000,9.810000,-19.750000,4.250000,-29.875000,0.125000,0.187500,-0.062500,107.562500,0.187500,1.000000,0.050000,0.100000,0.000000,0.030000,-0.170000,9.800000,0.590698,-0.006714,0.006348,-0.806885
30,1.593,0.090000,-0.070000,9.800000,-19.750000,3.875000,-31.062500,0.000000,-0.125000,0.000000,107.562500,0.187500,1.000000,0.060000,0.090000,0.000000,0.030000,-0.170000,9.800000,0.590698,-0.006714,0.006348,-0.806885
31,1.645,0.090000,-0.070000,9.800000,-19.375000,4.250000,-29.500000,-0.062500,0.125000,-0.125000,107.562500,0.187500,1.000000,0.060000,0.130000,0.020000,0.030000,-0.170000,9.800000,0.590698,-0.006714,0.006348,-0.806885
32,1.696,0.090000,-0.080000,9.800000,-19.750000,4.250000,-29.500000,0.062500,0.062500,0.062500,107.562500,0.187500,1.000000,0.060000,0.110000,0.000000,0.030000,-0.170000,9.800000,0.590698,-0.006714,0.006348,-0.806885
33,1.751,0.100000,-0.030000,9.750000,-19.375000,3.875000,-30.250000,0.000000,-0.250000,0.000000,107.562500,0.187500,1.000000,0.070000,0.140000,-0.040000,0.030000,-0.170000,9.800000,0.590698,-0.006714,0.006348,-0.806885
34,1.801,0.090000,-0.090000,9.780000,-20.062500,3.875000,-31.062500,-0.125000,-0.125000,-0.062500,107.562500,0.187500,1.000000,0.060000,0.080000,-0.010000,0.030000,-0.170000,9.800000,0.590698,-0.006714,0.006348,-0.806885
35,1.855,0.080000,-0.050000,9.810000,-19.750000,4.562500,-29.875000,-0.187500,-0.062500,-0.187500,107.562500,0.187500,1.000000,0.030000,0.070000,-0.010000,0.030000,-0.170000,9.800000,0.590698,-0.006714,0.006348,-0.806885
36,1.906,0.110000,-0.060000,9.790000,-19.375000,4.250000,-30.687500,-0.062500,-0.125000,0.062500,107.562500,0.187500,1.000000,0.050000,0.100000,-0.010000,0.030000,-0.170000,9.800000,0.590698,-0.006714,0.006348,-0.806885
37,1.960,0.100000,-0.080000,9.790000,-20.062500,3.875000,-30.250000,0.125000,0.062500,-0.125000,107.562500,0.187500,1.000000,0.070000,0.100000,0.000000,0.030000,-0.170000,9.800000,0.590698,-0.006714,0.006348,-0.806885
38,2.015,0.070000,-0.070000,9.790000,-19.750000,3.875000,-30.687500,0.125000,0.000000,0.062500,107.562500,0.187500,1.000000,0.060000,0.120000,-0.020000,0.030000,-0.170000,9.800000,0.590698,-0.006714,0.006348,-0.806885
39,2.069,0.080000,-0.060000,9.820000,-19.750000,3.875000,-31.062500,0.000000,0.000000,-0.062500,107.562500,0.187500,1.000000,0.030000,0.090000,0.000000,0.030000,-0.170000,9.800000,0.590698,-0.006714,0.006348,-0.806885
40,2.123,0.120000,-0.050000,9.780000,-19.375000,4.250000,-31.062500,0.125000,0.125000,-0.062500,107.562500,0.187500,1.000000,0.080000,0.120000,-0.010000,0.030000,-0.170000,9.800000,0.590698,-0.006714,0.006348,-0.806885
41,2.175,0.080000,-0.060000,9.790000,-19.750000,4.250000,-29.500000,0.187500,-0.062500,0.000000,107.562500,0.187500,1.000000,0.050000,0.110000,-0.010000,0.030000,-0.170000,9.800000,0.590698,-0.006714,0.006348,-0.806885
42,2.229,0.100000,-0.070000,9.790000,-19.375000,4.250000,-29.500000,-0.187500,0.062500,-0.125000,107.562500,0.187500,1.000000,0.050000,0.080000,0.000000,0.030000,-0.170000,9.800000,0.590698,-0.006714,0.006348,-0.806885
43,2.282,0.090000,-0.050000,9.780000,-19.750000,4.250000,-29.875000,-0.250000,0.062500,0.000000,107.562500,0.187500,1.000000,0.060000,0.120000,0.010000,0.030000,-0.170000,9.800000,0.590698,-0.006714,0.006348,-0.806885
44,2.332,0.070000,-0.080000,9.790000,-19.750000,3.500000,-29.875000,0.125000,0.062500,0.000000,107.562500,0.187500,1.000000,0.040000,0.100000,-0.010000,0.030000,-0.170000,9.800000,0.590698,-0.006714,0.006348,-0.806885
45,2.384,0.090000,-0.070000,9.800000,-19.000000,3.875000,-30.250000,0.000000,-0.062500,0.000000,107.562500,0.187500,1.000000,0.060000,0.090000,0.000000,0.030000,-0.170000,9.800000,0.590698,-0.006714,0.006348,-0.806885
46,2.432,0.100000,-0.060000,9.790000,-19.750000,3.875000,-30.250000,0.062500,0.000000,-0.062500,107.562500,0.187500,1.000000,0.050000,0.110000,-0.010000,0.030000,-0.170000,9.800000,0.590698,-0.006714,0.006348,-0.806885
47,2.489,1.380000,-0.060000,9.770000,-19.375000,4.250000,-29.875000,0.125000,0.000000,-0.062500,107.562500,0.187500,1.000000,0.070000,0.140000,-0.020000,0.030000,-0.170000,9.800000,0.590698,-0.006714,0.006348,-0.806885
48,2.539,0.090000,-0.080000,9.790000,-19.750000,3.500000,-29.875000,0.000000,0.000000,0.000000,107.562500,0.187500,1.000000,0.050000,0.100000,0.000000,0.030000,-0.170000,9.800000,0.590698,-0.006714,0.006348,-0.806885
49,2.588,0.060000,-0.080000,9.810000,-19.750000,4.250000,-29.875000,0.000000,0.062500,-0.062500,107.562500,0.187500,1.000000,0.030000,0.090000,0.000000,0.030000,-0.170000,9.800000,0.590698,-0.006714,0.006348,-0.806885
50,2.637,0.110000,-0.060000,9.800000,-20.062500,4.250000,-31.062500,0.187500,-0.125000,0.125000,107.562500,0.187500,1.000000,0.080000,0.110000,0.000000,0.030000,-0.170000,9.800000,0.590698,-0.006714,0.006348,-0.806885
51,2.688,0.090000,-0.070000,9.800000,-19.375000,3.875000,-30.250000,0.062500,0.062500,0.000000,107.562500,0.187500,1.000000,0.060000,0.090000,0.000000,0.030000,-0.170000,9.800000,0.590698,-0.006714,0.006348,-0.806885
52,2.737,0.080000,-0.070000,9.790000,-19.375000,3.875000,-30.250000,0.062500,-0.062500,-0.125000,107.562500,0.187500,1.000000,0.050000,0.100000,0.000000,0.030000,-0.170000,9.800000,0.590698,-0.006714,0.006348,-0.806885
53,2.787,0.100000,-0.070000,9.790000,-20.062500,4.250000,-30.687500,-0.062500,0.187500,0.125000,107.562500,0.187500,1.000000,0.050000,0.080000,-0.010000,0.030000,-0.170000,9.800000,0.590698,-0.006714,0.006348,-0.806885
54,2.839,0.080000,-0.070000,9.780000,-20.875000,3.875000,-29.875000,-0.187500,0.062500,0.187500,107.562500,0.187500,1.000000,0.060000,0.110000,-0.020000,0.030000,-0.170000,9.800000,0.590698,-0.006714,0.006348,-0.806885
55,2.893,0.090000,-0.050000,9.770000,-20.062500,3.062500,-30.687500,-0.125000,0.125000,0.125000,107.562500,0.187500,1.000000,0.080000,0.110000,0.000000,0.030000,-0.170000,9.800000,0.590698,-0.006714,0.006348,-0.806885
56,2.950,0.090000,-0.060000,9.820000,-19.375000,4.250000,-29.062500,0.062500,0.000000,-0.125000,107.562500,0.187500,1.000000,0.060000,0.120000,0.010000,0.030000,-0.170000,9.800000,0.590698,-0.006714,0.006348,-0.806885
57,3.006,0.080000,-0.050000,9.780000,-20.062500,4.250000,-29.875000,0.187500,-0.062500,-0.062500,107.562500,0.187500,1.000000,0.050000,0.120000,-0.020000,0.030000,-0.170000,9.800000,0.590698,-0.006714,0.006348,-0.806885
58,3.058,-1.790000,-0.320000,9.930000,-19.750000,3.875000,-29.500000,45.375000,-5.312500,131.000000,108.187500,0.187500,0.437500,-0.510000,-0.900000,0.130000,0.030000,-0.010000,9.800000,0.588562,-0.001831,-0.000122,-0.808472
59,3.111,0.360000,-0.060000,9.690000,-19.375000,2.750000,-29.500000,-5.375000,0.062500,-17.437500,108.625000,0.125000,-0.250000,0.320000,-0.050000,0.270000,0.030000,0.050000,9.800000,0.583191,0.000244,-0.003113,-0.812317
60,3.163,0.210000,0.180000,9.840000,-19.750000,1.562500,-29.500000,-0.937500,-0.062500,-7.562500,108.437500,0.187500,-0.187500,0.060000,0.080000,-0.090000,0.030000,0.040000,9.800000,0.584412,-0.000122,-0.002686,-0.811462
61,3.216,0.070000,0.120000,9.770000,-20.875000,1.562500,-30.000000,0.250000,0.062500,0.687500,108.375000,0.187500,-0.187500,0.050000,0.080000,-0.040000,0.030000,0.040000,9.800000,0.584778,-0.000061,-0.002686,-0.811218
62,3.268,0.090000,0.130000,9.750000,-20.500000,1.250000,-30.375000,0.187500,-0.125000,0.062500,-1939.625000,0.187500,-0.250000,0.060000,0.080000,-0.050000,0.030000,0.040000,9.800000,0.586487,0.000000,-0.004883,-0.809937
63,3.320,2.750000,2.100000,8.840000,-20.062500,0.875000,-30.000000,-85.500000,26.625000,-44.937500,107.125000,0.000000,1.187500,3.020000,3.070000,-0.710000,0.000000,-0.300000,9.800000,0.591309,-0.009155,0.012329,-0.806274
64,3.372,0.620000,-0.370000,10.120000,-20.062500,3.500000,-29.562500,-4.875000,13.000000,42.125000,105.687500,0.125000,1.750000,0.050000,0.660000,0.080000,0.020000,-0.300000,9.800000,0.603638,-0.010437,0.011780,-0.797119
65,3.426,0.050000,-0.310000,9.790000,-19.375000,5.000000,-30.750000,10.000000,0.062500,-0.125000,106.500000,0.125000,2.187500,0.080000,0.030000,-0.090000,0.020000,-0.380000,9.790000,0.598022,-0.012146,0.013916,-0.801270
66,3.481,0.360000,-0.410000,9.740000,-20.062500,5.000000,-32.375000,1.625000,0.375000,7.062500,106.500000,0.125000,1.750000,0.770000,-0.370000,0.090000,0.030000,-0.290000,9.800000,0.598816,-0.010437,0.011230,-0.800720
67,3.535,0.450000,0.260000,9.930000,-19.750000,4.562500,-31.250000,-33.937500,2.437500,-37.250000,106.062500,0.125000,2.562500,0.080000,0.480000,-0.180000,0.030000,-0.440000,9.790000,0.600830,-0.015015,0.017334,-0.799072
68,3.589,0.490000,-0.430000,9.710000,-20.062500,5.000000,-32.375000,-4.625000,1.312500,-17.312500,107.562500,0.187500,3.250000,0.450000,0.120000,-0.070000,0.030000,-0.560000,9.790000,0.588623,-0.018250,0.022278,-0.807922
69,3.642,0.390000,-1.470000,9.980000,-19.375000,5.750000,-32.000000,15.500000,-2.312500,46.312500,106.750000,0.125000,2.812500,0.360000,-0.980000,0.190000,0.030000,-0.470000,9.790000,0.596985,-0.015747,0.018311,-0.801880
70,3.693,1.900000,-1.840000,9.920000,-19.750000,5.750000,-31.562500,30.687500,-2.125000,63.562500,106.125000,0.125000,3.125000,-0.280000,-3.680000,1.370000,0.000000,-0.490000,9.790000,0.604309,-0.015564,0.020142,-0.796387
71,3.745,0.320000,-0.900000,10.370000,-19.750000,5.750000,-31.562500,-13.500000,-4.562500,7.000000,107.625000,0.125000,4.437500,0.240000,0.150000,-0.070000,0.020000,-0.760000,9.770000,0.589661,-0.023987,0.030640,-0.806763
72,3.800,0.150000,0.530000,9.930000,-19.000000,6.875000,-31.187500,-10.500000,-2.250000,-1.187500,107.625000,0.125000,4.625000,0.120000,1.330000,0.150000,0.020000,-0.790000,9.770000,0.589478,-0.024963,0.031860,-0.806763
73,3.851,-1.230000,-1.500000,9.720000,-19.000000,6.875000,-31.562500,-2.625000,-1.687500,-15.687500,110.062500,0.125000,4.812500,-1.260000,-0.670000,-0.040000,0.030000,-0.830000,9.770000,0.571960,-0.025757,0.034180,-0.819153
74,3.903,0.700000,-1.590000,10.260000,-17.875000,6.062500,-30.000000,33.687500,-8.812500,46.500000,108.687500,0.375000,4.187500,0.630000,-0.860000,0.480000,0.070000,-0.720000,9.770000,0.582947,-0.022766,0.025146,-0.811768
75,3.952,0.020000,-0.400000,10.120000,-18.562500,6.000000,-31.562500,46.687500,-2.125000,-15.625000,108.937500,0.375000,2.000000,-0.040000,-0.050000,0.320000,0.070000,-0.340000,9.800000,0.580994,-0.013062,0.012146,-0.813721
76,4.002,0.140000,-0.010000,9.930000,-19.000000,3.000000,-31.187500,16.250000,-0.437500,-4.062500,109.125000,0.187500,0.437500,0.110000,0.060000,0.130000,0.030000,-0.080000,9.800000,0.579590,-0.003845,0.002258,-0.814880
77,4.050,-0.580000,0.420000,9.590000,-19.000000,2.250000,-30.375000,-0.750000,-0.250000,1.062500,109.312500,0.187500,0.000000,-0.620000,0.420000,-0.200000,0.030000,0.000000,9.800000,0.578064,-0.001343,-0.001221,-0.815979
78,4.102,0.160000,0.180000,10.040000,-19.375000,1.500000,-32.000000,13.750000,63.812500,-18.687500,109.812500,-0.562500,-0.375000,0.270000,0.110000,0.240000,-0.100000,0.070000,9.800000,0.574524,0.006531,0.000122,-0.818481
79,4.151,-0.190000,0.490000,9.890000,-17.875000,0.500000,-32.750000,-1.562500,14.312500,-17.562500,110.187500,-3.250000,-1.062500,0.360000,0.300000,0.100000,-0.550000,0.180000,9.780000,0.571655,0.028687,0.008484,-0.819946
80,4.199,-0.550000,0.800000,8.930000,-17.875000,0.500000,-32.750000,15.312500,12.375000,-6.437500,110.437500,-4.000000,-1.687500,0.350000,0.510000,-0.580000,-0.680000,0.290000,9.770000,0.569885,0.037292,0.007812,-0.820862
81,4.249,-0.420000,0.600000,9.840000,-16.375000,1.250000,-32.500000,21.375000,10.625000,-5.125000,110.937500,-4.500000,-2.562500,0.150000,-0.110000,0.050000,-0.770000,0.430000,9.760000,0.565979,0.045166,0.003906,-0.823181
82,4.297,-0.210000,0.120000,9.840000,-15.687500,-0.187500,-33.687500,14.375000,-39.937500,-3.750000,111.562500,-4.000000,-2.750000,0.460000,-0.350000,0.070000,-0.680000,0.470000,9.770000,0.561646,0.042664,-0.000366,-0.826294
83,4.347,-0.610000,0.920000,9.980000,-14.875000,-1.687500,-33.250000,0.250000,-7.750000,-31.625000,112.000000,-2.437500,-3.000000,0.330000,-0.120000,0.040000,-0.420000,0.520000,9.780000,0.558838,0.032654,-0.010132,-0.828552
84,4.399,0.050000,0.620000,9.760000,-16.500000,-1.375000,-32.562500,0.375000,3.187500,-25.187500,113.250000,-2.812500,-3.187500,0.200000,0.010000,-0.070000,-0.480000,0.550000,9.770000,0.549438,0.036133,-0.009888,-0.834656
85,4.448,-0.590000,0.510000,9.610000,-18.000000,-1.375000,-32.187500,9.250000,-29.750000,-26.312500,114.687500,-1.937500,-3.500000,-0.130000,-0.110000,-0.030000,-0.330000,0.600000,9.780000,0.539246,0.030884,-0.016724,-0.841431
86,4.499,-0.210000,0.970000,9.920000,-16.500000,-1.687500,-31.750000,6.500000,-23.250000,5.000000,114.875000,-0.375000,-3.937500,0.270000,-0.130000,0.010000,-0.070000,0.670000,9.780000,0.537842,0.021729,-0.027161,-0.842285
87,4.549,0.330000,0.720000,9.840000,-18.375000,-3.687500,-30.187500,-0.187500,0.750000,11.875000,115.000000,0.125000,-4.062500,0.170000,0.200000,0.030000,0.020000,0.700000,9.780000,0.536865,0.018250,-0.030823,-0.842896
88,4.600,0.210000,0.620000,9.780000,-19.875000,-3.687500,-31.500000,1.875000,-1.375000,7.875000,114.562500,0.187500,-4.125000,0.030000,-0.220000,0.000000,0.040000,0.710000,9.780000,0.539978,0.017944,-0.031738,-0.840881
89,4.649,0.120000,0.440000,9.840000,-20.187500,-2.750000,-29.000000,0.750000,0.812500,22.500000,113.875000,0.562500,-4.437500,0.080000,-0.270000,-0.020000,0.090000,0.750000,9.770000,0.544800,0.016846,-0.035278,-0.837646
90,4.699,0.320000,0.940000,9.770000,-21.000000,-3.562500,-30.687500,0.875000,-1.375000,3.437500,113.562500,0.625000,-4.437500,-0.020000,-0.120000,-0.080000,0.110000,0.760000,9.770000,0.547180,0.016479,-0.035706,-0.836060
91,4.750,-0.710000,0.970000,9.800000,-20.562500,-2.750000,-30.250000,36.750000,6.062500,-32.500000,113.937500,0.562500,-5.562500,0.690000,-0.830000,0.770000,0.090000,0.960000,9.750000,0.544312,0.022583,-0.043823,-0.837463
92,4.800,-0.100000,1.070000,9.910000,-21.687500,-3.187500,-30.250000,9.187500,-4.250000,-9.562500,114.250000,0.687500,-6.125000,0.200000,0.320000,-0.080000,0.120000,1.040000,-317.940000,0.541565,0.023743,-0.048279,-0.838928
93,4.851,0.430000,1.560000,9.540000,-20.562500,-5.062500,-30.250000,21.125000,-3.062500,-6.687500,114.625000,0.875000,-6.812500,0.210000,0.180000,-0.060000,0.150000,1.170000,9.730000,0.538696,0.025818,-0.054626,-0.840332
94,4.901,0.040000,1.300000,9.610000,-20.562500,-4.687500,-29.875000,22.250000,-0.625000,-5.437500,114.875000,0.875000,-7.937500,0.000000,-0.040000,0.100000,0.150000,1.350000,9.710000,0.536621,0.030457,-0.062866,-0.840942
95,4.949,0.060000,1.280000,9.910000,-21.000000,-6.562500,-30.687500,7.875000,0.812500,-4.312500,115.000000,0.812500,-8.437500,0.020000,-0.090000,0.280000,0.140000,1.440000,9.690000,0.535461,0.033447,-0.065979,-0.841309
96,5.000,-0.040000,1.490000,9.690000,-20.187500,-6.875000,-31.062500,2.812500,-2.062500,-3.875000,115.250000,0.875000,-8.562500,-0.010000,0.130000,0.000000,0.150000,1.460000,9.690000,0.533691,0.033508,-0.067505,-0.842285
97,5.051,0.350000,1.670000,9.390000,-20.562500,-6.562500,-31.562500,12.312500,-0.500000,-3.437500,115.500000,0.812500,-8.937500,0.320000,0.150000,-0.210000,0.140000,1.520000,9.680000,0.531799,0.035278,-0.069946,-0.843201
98,5.100,0.220000,1.410000,9.900000,-20.562500,-7.687500,-31.562500,11.687500,-3.750000,1.937500,115.437500,1.000000,-9.562500,0.030000,-0.070000,0.010000,0.170000,1.620000,9.660000,0.531799,0.036987,-0.075256,-0.842712
99,5.151,0.600000,1.950000,9.450000,-21.000000,-7.250000,-33.187500,12.687500,-5.875000,4.875000,115.250000,1.312500,-10.062500,0.240000,0.100000,0.010000,0.220000,1.710000,9.650000,0.533142,0.037292,-0.080383,-0.841370
100,5.201,0.420000,1.750000,9.590000,-21.375000,-9.062500,-33.187500,13.750000,-6.687500,4.437500,115.000000,1.750000,-10.812500,0.300000,0.020000,-0.170000,0.300000,1.830000,9.620000,0.534790,0.037598,-0.087769,-0.839600
101,5.251,0.600000,1.900000,9.250000,-22.500000,-8.000000,-33.187500,11.062500,-4.187500,7.062500,114.687500,2.062500,-11.312500,0.390000,0.080000,-0.490000,0.350000,1.930000,9.600000,0.536560,0.038025,-0.093201,-0.837830
102,5.302,0.430000,1.910000,9.540000,-22.500000,-9.750000,-34.000000,14.562500,0.937500,0.125000,114.562500,2.062500,-11.937500,0.060000,-0.120000,0.000000,0.360000,2.030000,9.580000,0.537231,0.040771,-0.097717,-0.836792
103,5.351,0.260000,2.040000,9.580000,-22.500000,-9.687500,-32.750000,12.500000,-1.000000,-6.437500,114.750000,2.062500,-12.562500,-0.160000,0.000000,0.020000,0.350000,2.130000,9.560000,0.535706,0.043823,-0.102173,-0.837036
104,5.401,0.340000,1.840000,10.000000,-22.500000,-10.062500,-34.000000,7.875000,-0.125000,-6.250000,115.187500,1.875000,-13.187500,0.140000,-0.170000,0.260000,0.320000,2.240000,9.540000,0.531982,0.047607,-0.106262,-0.838684
105,5.453,0.270000,2.160000,9.340000,-21.687500,-10.875000,-33.250000,8.250000,1.187500,2.937500,115.125000,1.937500,-13.625000,-0.080000,-0.140000,-0.090000,0.340000,2.310000,9.520000,0.532104,0.048950,-0.109741,-0.838074
106,5.503,0.370000,2.350000,9.630000,-21.375000,-11.562500,-34.500000,9.125000,-0.187500,3.062500,115.062500,1.875000,-14.000000,-0.040000,0.030000,-0.110000,0.320000,2.370000,9.500000,0.532532,0.051453,-0.111938,-0.837402
107,5.553,0.390000,2.570000,9.430000,-21.000000,-12.000000,-34.062500,12.625000,0.500000,1.375000,114.937500,1.875000,-14.562500,0.000000,0.020000,0.010000,0.320000,2.460000,9.480000,0.533020,0.053833,-0.116028,-0.836365
108,5.603,0.440000,2.640000,9.350000,-21.375000,-11.875000,-33.250000,8.937500,3.687500,4.187500,114.750000,1.812500,-15.000000,0.050000,0.100000,-0.060000,0.310000,2.540000,9.460000,0.534363,0.057007,-0.118958,-0.834900
109,5.652,0.050000,2.420000,9.780000,-19.875000,-12.562500,-33.687500,12.875000,0.437500,-1.437500,114.687500,1.750000,-15.687500,-0.280000,-0.220000,0.270000,0.300000,2.650000,9.430000,0.534424,0.060364,-0.123596,-0.833923
110,5.704,0.480000,2.940000,9.030000,-20.187500,-13.250000,-34.062500,6.562500,1.062500,1.125000,114.687500,1.750000,-16.000000,0.120000,0.090000,-0.240000,0.300000,2.700000,9.420000,0.533936,0.062073,-0.125854,-0.833801
111,5.754,0.330000,2.860000,9.110000,-21.000000,-14.375000,-34.500000,12.875000,1.125000,0.375000,114.687500,1.687500,-16.500000,0.000000,-0.100000,0.040000,0.290000,2.790000,9.390000,0.533875,0.064697,-0.129456,-0.833069
112,5.805,0.200000,2.780000,9.250000,-21.375000,-14.750000,-33.250000,5.875000,0.187500,-3.000000,114.687500,1.625000,-16.937500,0.020000,0.080000,-0.260000,0.280000,2.860000,9.370000,0.533569,0.067078,-0.132263,-0.832642
113,5.856,0.280000,2.760000,9.300000,-21.000000,-15.562500,-33.375000,11.500000,-1.875000,-2.625000,114.875000,1.625000,-17.437500,-0.110000,-0.240000,0.020000,0.280000,2.940000,9.340000,0.531616,0.069397,-0.135986,-0.833130
114,5.906,0.230000,2.690000,10.010000,-20.562500,-16.250000,-34.187500,8.125000,-3.937500,-0.937500,114.937500,1.750000,-17.937500,0.030000,-0.340000,0.680000,0.300000,3.010000,9.320000,0.530823,0.070496,-0.139893,-0.832886
115,5.957,0.910000,3.170000,9.400000,-22.500000,-15.750000,-34.562500,1.562500,-8.937500,6.437500,114.875000,2.187500,-18.062500,0.550000,0.180000,-0.030000,0.380000,3.030000,9.310000,0.531250,0.067871,-0.142883,-0.832336
116,6.007,0.450000,3.090000,8.850000,-22.500000,-15.750000,-33.750000,6.625000,-0.437500,7.875000,114.437500,2.562500,-18.250000,-0.020000,-0.030000,-0.420000,0.440000,3.070000,9.300000,0.534363,0.066772,-0.145691,-0.829956
117,6.057,0.550000,3.100000,8.920000,-23.062500,-16.562500,-34.562500,8.375000,11.937500,5.062500,114.187500,2.250000,-18.625000,0.180000,-0.060000,-0.950000,0.390000,3.120000,9.280000,0.535889,0.070740,-0.146851,-0.828430
118,6.109,1.430000,3.530000,9.270000,-22.375000,-15.062500,-35.000000,19.187500,9.875000,14.250000,113.625000,1.750000,-19.062500,1.120000,0.320000,0.010000,0.300000,3.200000,9.260000,0.538818,0.079590,-0.147766,-0.825562
119,6.161,0.140000,2.930000,10.620000,-20.875000,-17.250000,-35.000000,2.187500,11.687500,-1.312500,113.562500,1.125000,-19.562500,-0.050000,-0.350000,1.380000,0.180000,3.290000,9.230000,0.539551,0.085205,-0.147827,-0.824463
120,6.212,0.220000,3.430000,8.720000,-20.500000,-17.250000,-34.562500,-5.437500,-4.250000,-2.937500,113.562500,1.125000,-19.375000,0.140000,0.230000,-0.660000,0.190000,3.250000,9.250000,0.539368,0.083557,-0.146240,-0.825073
121,6.263,0.200000,3.350000,8.740000,-19.750000,-17.000000,-36.250000,7.312500,1.250000,0.625000,113.625000,1.062500,-19.500000,-0.010000,0.130000,-0.500000,0.180000,3.280000,9.230000,0.539062,0.084839,-0.147400,-0.824890
122,6.316,0.140000,3.450000,9.310000,-19.375000,-18.000000,-37.875000,16.750000,4.500000,2.687500,113.500000,0.937500,-20.250000,0.000000,0.040000,0.180000,0.160000,3.390000,9.190000,0.539490,0.089172,-0.151855,-0.823364
123,6.369,-0.110000,3.390000,9.350000,-19.875000,-17.187500,-38.000000,11.125000,8.562500,1.812500,113.250000,0.687500,-20.812500,-0.150000,-0.060000,0.120000,0.110000,3.490000,9.160000,0.540649,0.094421,-0.154663,-0.821533
124,6.419,0.270000,3.600000,8.940000,-19.875000,-18.687500,-38.000000,11.812500,2.000000,-0.937500,113.250000,0.437500,-21.375000,0.120000,0.030000,-1.620000,0.080000,3.570000,9.130000,0.540405,0.098328,-0.157349,-0.820679
125,6.473,0.100000,3.660000,8.870000,-19.500000,-18.687500,-37.062500,15.625000,1.500000,2.687500,113.125000,0.437500,-22.062500,-0.020000,-0.110000,-0.140000,0.070000,3.700000,9.070000,0.540527,0.103027,-0.162964,-0.818970
126,6.526,0.070000,3.670000,8.890000,-20.187500,-20.562500,-38.687500,11.625000,-0.812500,2.125000,113.000000,0.375000,-22.812500,0.080000,-0.100000,-0.110000,0.060000,3.800000,9.030000,0.541016,0.106201,-0.166931,-0.817444
127,6.580,0.330000,3.900000,9.090000,-19.500000,-20.875000,-37.500000,14.750000,-2.687500,0.125000,113.000000,0.437500,-23.437500,0.250000,0.000000,0.100000,0.080000,3.900000,8.990000,0.540222,0.108948,-0.173096,-0.816284
128,6.634,0.510000,4.000000,9.220000,-20.187500,-20.875000,-37.875000,9.125000,-1.812500,-2.437500,113.062500,0.562500,-24.062500,0.310000,0.040000,0.210000,0.090000,4.000000,8.950000,0.539062,0.110779,-0.177002,-0.815979
129,6.686,0.370000,4.140000,9.110000,-20.562500,-22.000000,-37.500000,8.812500,-6.750000,-4.500000,113.312500,0.812500,-24.500000,0.140000,0.000000,0.150000,0.140000,4.070000,8.910000,0.536926,0.110596,-0.181580,-0.816406
130,6.737,0.220000,4.080000,8.460000,-19.500000,-22.750000,-37.500000,5.312500,-5.125000,-3.562500,113.562500,1.000000,-24.750000,0.030000,0.000000,-0.460000,0.170000,4.110000,8.900000,0.534668,0.109802,-0.184814,-0.817261
131,6.789,-0.160000,3.840000,8.560000,-19.500000,-23.687500,-36.750000,7.562500,1.437500,4.375000,113.500000,1.000000,-25.125000,-0.370000,-0.370000,-0.110000,0.170000,4.160000,8.870000,0.534668,0.111511,-0.187317,-0.816467
132,6.842,0.160000,4.070000,8.460000,-19.500000,-23.687500,-38.000000,1.500000,0.812500,4.875000,113.375000,1.000000,-25.312500,-0.010000,-0.110000,-0.390000,0.170000,4.190000,8.860000,0.536072,0.112793,-0.188354,-0.815125
133,6.894,0.160000,4.340000,8.820000,-18.000000,-24.875000,-38.000000,4.500000,10.125000,-0.625000,113.187500,0.812500,-25.437500,0.060000,0.000000,0.240000,0.120000,4.220000,8.840000,0.536682,0.116211,-0.188171,-0.814270
134,6.947,-0.250000,4.100000,9.230000,-18.375000,-24.875000,-38.375000,5.937500,12.000000,-6.562500,113.125000,0.000000,-25.875000,-0.290000,-0.180000,0.310000,0.000000,4.280000,8.820000,0.536804,0.123108,-0.187195,-0.813416
135,7.002,0.100000,4.450000,8.780000,-16.500000,-24.875000,-36.750000,15.375000,-2.937500,-26.000000,114.062500,-0.500000,-26.375000,0.190000,0.080000,0.000000,-0.080000,4.360000,8.780000,0.527466,0.129089,-0.190308,-0.817871
136,7.054,-0.150000,4.280000,8.450000,-15.750000,-25.187500,-36.875000,11.812500,1.125000,-5.875000,115.000000,-0.812500,-27.125000,0.000000,-0.190000,-0.260000,-0.140000,4.470000,8.720000,0.521545,0.133118,-0.194702,-0.819946
137,7.106,-0.110000,4.600000,8.640000,-15.375000,-26.687500,-37.250000,18.500000,0.187500,-3.062500,115.187500,-0.937500,-27.875000,0.050000,0.010000,-0.020000,-0.160000,4.610000,8.650000,0.519836,0.137329,-0.200195,-0.819031
138,7.157,-0.260000,4.420000,9.210000,-15.000000,-27.500000,-37.250000,9.750000,0.312500,8.125000,114.812500,-0.812500,-28.562500,-0.120000,-0.270000,0.600000,-0.130000,4.700000,8.600000,0.522095,0.139465,-0.204834,-0.816101
139,7.208,0.020000,4.810000,-319.360000,-13.500000,-29.000000,-37.250000,6.625000,-2.437500,8.187500,114.500000,-0.500000,-28.875000,0.200000,0.180000,-0.350000,-0.080000,4.750000,8.570000,0.523865,0.139221,-0.208130,-0.814148
140,7.258,-0.070000,4.700000,8.630000,-13.875000,-29.375000,-37.750000,10.562500,3.750000,0.187500,114.312500,-0.500000,-29.375000,0.000000,-0.110000,0.090000,-0.090000,4.830000,8.530000,0.524048,0.142334,-0.211426,-0.812683
141,7.307,-0.050000,4.930000,8.450000,-14.750000,-29.375000,-38.187500,8.562500,3.500000,-0.812500,114.375000,-0.687500,-29.812500,0.050000,0.050000,-0.040000,-0.120000,4.890000,8.490000,0.523315,0.145508,-0.213562,-0.812012
142,7.358,-0.210000,4.810000,8.470000,-14.000000,-29.562500,-39.000000,8.312500,3.875000,-0.312500,114.312500,-0.812500,-30.312500,-0.070000,-0.130000,0.010000,-0.140000,4.950000,8.460000,0.522949,0.148804,-0.215942,-0.811035
143,7.407,-0.250000,4.880000,8.550000,-13.250000,-31.500000,-39.000000,5.937500,3.437500,-4.875000,114.437500,-1.125000,-30.562500,-0.050000,-0.100000,0.120000,-0.190000,4.990000,8.430000,0.521606,0.152039,-0.216614,-0.811096
144,7.457,-0.270000,4.890000,8.230000,-13.562500,-31.500000,-39.500000,5.500000,-0.812500,-4.062500,114.687500,-1.250000,-30.875000,-0.040000,-0.140000,-0.170000,-0.220000,5.030000,8.410000,0.519592,0.153809,-0.218262,-0.811646
145,7.506,-0.160000,5.080000,7.980000,-14.000000,-32.250000,-39.062500,7.562500,-0.437500,-4.000000,114.875000,-1.375000,-31.125000,0.070000,0.010000,-0.390000,-0.230000,5.070000,8.380000,0.518127,0.155029,-0.219604,-0.811951
146,7.555,-0.410000,4.860000,8.740000,-12.875000,-32.500000,-41.062500,9.187500,-3.187500,-8.437500,115.187500,-1.500000,-31.562500,-0.160000,-0.270000,0.390000,-0.250000,5.130000,8.340000,0.515503,0.157471,-0.222595,-0.812317
147,7.604,-0.170000,5.230000,8.160000,-12.500000,-33.250000,-41.500000,8.937500,-5.000000,-6.625000,115.625000,-1.500000,-31.937500,0.080000,0.040000,-0.150000,-0.250000,5.180000,8.310000,0.511658,0.158081,-0.225708,-0.813843
148,7.653,-0.400000,5.000000,8.540000,-12.500000,-34.250000,-39.062500,3.687500,-3.812500,-3.187500,115.875000,-1.375000,-32.250000,-0.090000,-0.090000,0.030000,-0.240000,5.230000,8.290000,0.509827,0.158386,-0.228516,-0.814087
149,7.703,-0.130000,5.280000,7.960000,-13.250000,-34.687500,-39.875000,5.062500,0.312500,7.875000,115.750000,-1.250000,-32.375000,0.140000,0.180000,-0.370000,-0.220000,5.250000,8.270000,0.510437,0.158447,-0.230225,-0.813232
150,7.755,-0.320000,5.050000,8.270000,-14.375000,-34.562500,-40.750000,1.375000,1.062500,13.562500,115.000000,-0.937500,-32.687500,-0.150000,-0.230000,0.010000,-0.160000,5.290000,8.250000,0.515137,0.158386,-0.232727,-0.809570
151,7.804,-0.050000,5.310000,8.070000,-14.375000,-35.687500,-40.375000,2.687500,3.437500,4.500000,114.625000,-0.875000,-32.687500,0.100000,0.020000,-0.110000,-0.150000,5.300000,8.240000,0.518005,0.158875,-0.232849,-0.807617
152,7.856,-0.130000,5.260000,8.290000,-15.875000,-35.375000,-41.187500,7.625000,-1.000000,-2.937500,114.625000,-0.875000,-33.000000,0.010000,-0.070000,0.070000,-0.150000,5.340000,8.210000,0.517639,0.160339,-0.235046,-0.806885
153,7.905,-0.060000,5.380000,8.160000,-15.875000,-35.000000,-41.562500,9.062500,-1.875000,-4.937500,114.937500,-0.875000,-33.437500,0.080000,-0.010000,-0.010000,-0.150000,5.400000,8.170000,0.514771,0.161804,-0.238342,-0.807434
154,7.955,-0.120000,5.560000,8.090000,-16.187500,-35.000000,-40.750000,9.437500,-3.562500,-3.312500,115.125000,-0.875000,-33.875000,0.020000,0.090000,-0.040000,-0.150000,5.460000,8.130000,0.512695,0.163208,-0.241638,-0.807556
155,8.005,-0.220000,5.430000,8.160000,-15.875000,-36.875000,-41.187500,14.437500,-4.250000,-2.937500,115.375000,-0.812500,-34.500000,-0.080000,-0.120000,0.080000,-0.140000,5.550000,8.080000,0.510193,0.164978,-0.246643,-0.807251
156,8.055,-0.170000,5.490000,8.000000,-16.187500,-37.062500,-40.750000,6.187500,-3.625000,1.812500,115.500000,-0.687500,-34.937500,-0.070000,-0.020000,-0.200000,-0.120000,5.620000,8.030000,0.508850,0.166016,-0.250610,-0.806702
157,8.105,0.050000,5.570000,8.190000,-17.000000,-37.062500,-40.375000,10.000000,-3.750000,-2.250000,115.625000,-0.625000,-35.437500,0.100000,-0.130000,0.180000,-0.100000,5.680000,7.980000,0.507263,0.167114,-0.254578,-0.806213
158,8.156,-0.110000,5.620000,8.000000,-17.250000,-37.875000,-40.375000,4.187500,-1.437500,-0.062500,115.687500,-0.500000,-35.750000,-0.040000,-0.020000,0.050000,-0.080000,5.730000,7.950000,0.506165,0.167358,-0.257385,-0.805908
159,8.206,0.070000,5.850000,8.030000,-17.250000,-38.562500,-40.062500,6.062500,0.437500,-1.937500,115.750000,-0.500000,-35.937500,0.100000,0.090000,0.120000,-0.090000,5.760000,7.930000,0.505432,0.168518,-0.258972,-0.805664
160,8.254,0.130000,5.930000,7.930000,-17.687500,-39.000000,-40.875000,6.562500,-2.750000,-4.187500,115.937500,-0.562500,-36.250000,0.210000,0.130000,0.000000,-0.090000,5.800000,7.900000,0.503784,0.169617,-0.261353,-0.805664
161,8.304,-0.080000,5.730000,7.780000,-17.000000,-39.250000,-42.875000,7.937500,0.562500,-4.562500,116.125000,-0.562500,-36.625000,0.020000,-0.110000,0.010000,-0.100000,5.850000,7.860000,0.501831,0.170959,-0.264160,-0.805725
162,8.357,-0.190000,5.790000,7.710000,-16.562500,-39.687500,-43.250000,8.375000,4.187500,-12.875000,116.312500,-0.750000,-37.000000,0.020000,-0.080000,0.030000,-0.130000,5.900000,7.820000,0.500061,0.173767,-0.266113,-0.805603
163,8.407,-0.260000,5.860000,7.920000,-15.062500,-41.187500,-44.062500,5.125000,2.500000,-3.312500,116.437500,-1.000000,-37.375000,-0.090000,-0.080000,0.130000,-0.170000,5.950000,7.790000,0.498657,0.176758,-0.267517,-0.805359
164,8.457,-0.280000,5.920000,7.920000,-15.875000,-40.687500,-44.562500,4.750000,-0.812500,-6.187500,116.687500,-1.187500,-37.562500,0.000000,0.010000,0.100000,-0.200000,5.980000,7.760000,0.496399,0.178589,-0.268494,-0.805969
165,8.508,-0.350000,5.920000,7.810000,-13.250000,-42.187500,-44.875000,6.812500,-5.812500,-5.375000,117.062500,-1.250000,-37.875000,-0.140000,-0.090000,0.080000,-0.210000,6.020000,7.730000,0.493286,0.179321,-0.270874,-0.806946
166,8.557,-0.170000,6.130000,7.430000,-13.250000,-42.562500,-45.687500,9.750000,-2.875000,-5.375000,117.437500,-1.250000,-38.187500,-0.060000,-0.090000,-0.080000,-0.210000,6.060000,7.690000,0.490356,0.180115,-0.273804,-0.807556
167,8.607,-0.110000,6.140000,7.800000,-12.500000,-42.750000,-48.062500,10.062500,-2.250000,-4.687500,117.687500,-1.312500,-38.687500,0.080000,0.020000,0.080000,-0.230000,6.130000,7.640000,0.487671,0.182068,-0.277222,-0.807556
168,8.657,-0.500000,6.150000,7.280000,-11.750000,-43.562500,-48.500000,10.875000,2.000000,1.375000,117.812500,-1.312500,-39.187500,-0.060000,0.080000,-0.190000,-0.230000,6.190000,7.590000,0.486389,0.183899,-0.280701,-0.806702
169,8.708,-0.280000,6.270000,7.660000,-11.375000,-45.250000,-49.250000,13.375000,3.125000,3.812500,117.625000,-1.375000,-39.812500,0.090000,0.090000,0.100000,-0.240000,6.280000,7.520000,0.486694,0.187622,-0.284546,-0.804321
170,8.758,-0.530000,6.170000,7.550000,-10.250000,-45.687500,-51.250000,9.500000,4.000000,1.187500,117.437500,-1.437500,-40.312500,-0.230000,-0.040000,-0.030000,-0.240000,6.350000,7.460000,0.487183,0.190552,-0.287903,-0.802185
171,8.808,-0.150000,6.490000,7.440000,-10.562500,-45.562500,-50.062500,16.187500,3.437500,-2.312500,117.437500,-1.625000,-40.937500,0.150000,-0.070000,0.250000,-0.280000,6.420000,7.390000,0.486145,0.194702,-0.291260,-0.800598
172,8.858,-0.530000,6.410000,7.130000,-10.250000,-46.687500,-51.375000,8.500000,3.437500,-2.375000,117.437500,-1.750000,-41.500000,-0.120000,0.050000,-0.410000,-0.300000,6.490000,7.330000,0.485107,0.198181,-0.294373,-0.799194
173,8.908,0.000000,6.470000,7.590000,-11.750000,-47.687500,-51.750000,13.187500,4.062500,-2.562500,117.500000,-2.062500,-42.125000,0.250000,-0.080000,0.300000,-0.350000,6.570000,7.260000,0.483765,0.202759,-0.297180,-0.797852
174,8.958,-0.680000,6.520000,7.130000,-11.750000,-48.375000,-52.187500,9.500000,8.437500,-0.312500,117.437500,-2.250000,-42.562500,-0.290000,-0.040000,-0.070000,-0.380000,6.630000,7.210000,0.483582,0.206482,-0.299316,-0.796204
175,9.007,-0.390000,6.710000,7.620000,-11.875000,-48.375000,-52.187500,12.562500,9.312500,-1.750000,117.312500,-2.687500,-43.187500,0.070000,-0.040000,0.550000,-0.460000,6.700000,7.140000,0.483337,0.212952,-0.300842,-0.794067
176,9.057,-0.690000,6.730000,6.960000,-11.875000,-49.375000,-51.750000,7.812500,6.750000,-1.687500,117.250000,-2.937500,-43.625000,-0.210000,0.020000,-0.230000,-0.500000,6.750000,7.080000,0.483154,0.216919,-0.302612,-0.792419
177,9.107,-0.500000,6.750000,6.450000,-11.500000,-50.062500,-52.562500,16.062500,6.812500,-2.687500,117.250000,-3.250000,-44.187500,0.310000,-0.090000,-0.110000,-0.560000,6.830000,7.010000,0.481873,0.222168,-0.305115,-0.790833
178,9.157,-0.720000,6.630000,6.970000,-12.562500,-51.187500,-54.562500,8.312500,2.812500,-0.250000,117.187500,-3.437500,-44.812500,-0.140000,-0.180000,-0.050000,-0.590000,6.900000,6.930000,0.481201,0.226501,-0.308228,-0.788757
179,9.207,-0.490000,6.760000,7.230000,-13.062500,-51.750000,-55.000000,2.625000,3.125000,-3.562500,117.250000,-3.687500,-45.062500,0.230000,0.000000,0.170000,-0.630000,6.930000,6.900000,0.480225,0.229065,-0.308960,-0.788330
180,9.257,-0.560000,6.830000,6.990000,-13.062500,-51.687500,-55.375000,0.437500,-1.437500,0.187500,117.312500,-3.687500,-45.125000,0.000000,-0.170000,0.050000,-0.630000,6.930000,6.900000,0.479919,0.229126,-0.309021,-0.788452
181,9.307,-0.480000,6.850000,6.850000,-13.500000,-52.375000,-56.500000,-4.562500,0.875000,-0.687500,117.312500,-3.687500,-44.937500,0.200000,0.050000,-0.170000,-0.630000,6.910000,6.920000,0.480042,0.228699,-0.307983,-0.788879
182,9.358,-0.820000,6.720000,6.590000,-14.187500,-52.750000,-57.000000,-0.625000,0.187500,0.062500,117.250000,-3.625000,-44.875000,-0.190000,-0.160000,-0.250000,-0.620000,6.900000,6.930000,0.480530,0.228027,-0.307617,-0.788940
183,9.408,-0.580000,6.890000,6.940000,-15.062500,-53.375000,-57.750000,0.500000,2.062500,0.125000,117.312500,-3.812500,-44.875000,0.000000,-0.060000,0.020000,-0.650000,6.900000,6.920000,0.480408,0.229065,-0.306946,-0.789001
184,9.458,-0.660000,6.850000,7.000000,-13.875000,-52.687500,-56.500000,-0.500000,0.937500,0.562500,117.250000,-3.812500,-44.875000,-0.070000,-0.040000,0.020000,-0.650000,6.910000,6.920000,0.480530,0.229431,-0.306885,-0.788818
185,9.508,-0.560000,6.940000,7.090000,-14.250000,-51.875000,-56.062500,-1.000000,-0.187500,-0.187500,117.250000,-3.812500,-44.875000,0.070000,0.040000,0.170000,-0.650000,6.900000,6.930000,0.480896,0.229309,-0.306580,-0.788757
186,9.559,-0.650000,6.840000,7.090000,-14.250000,-51.500000,-55.687500,-3.937500,0.687500,2.250000,117.187500,-3.750000,-44.750000,-0.130000,-0.080000,0.130000,-0.640000,6.890000,6.940000,0.481567,0.228638,-0.305847,-0.788818
187,9.609,-0.670000,6.860000,6.810000,-14.687500,-51.500000,-56.062500,-1.812500,-0.500000,0.250000,117.125000,-3.750000,-44.562500,-0.030000,-0.010000,-0.210000,-0.640000,6.870000,6.960000,0.482178,0.228027,-0.304565,-0.789185
188,9.659,-0.460000,6.880000,6.900000,-14.687500,-52.687500,-57.687500,1.437500,0.562500,1.625000,117.062500,-3.750000,-44.562500,0.040000,-0.070000,0.120000,-0.640000,6.870000,6.960000,0.482300,0.228027,-0.304749,-0.789001
189,9.714,-0.660000,6.820000,6.930000,-16.187500,-51.187500,-59.250000,-0.625000,0.875000,-0.750000,117.062500,-3.750000,-44.562500,-0.020000,-0.050000,-0.020000,-0.640000,6.870000,6.960000,0.482544,0.228149,-0.304626,-0.788879
190,9.763,-0.600000,6.740000,6.870000,-16.187500,-52.187500,-59.250000,-0.562500,0.687500,0.000000,117.062500,-3.750000,-44.562500,0.040000,-0.120000,-0.090000,-0.640000,6.870000,6.960000,0.482605,0.228271,-0.304565,-0.788818
191,9.811,-0.490000,6.770000,7.000000,-16.500000,-52.562500,-58.062500,-2.000000,0.875000,0.312500,117.000000,-3.812500,-44.500000,0.130000,-0.110000,0.010000,-0.650000,6.860000,6.970000,0.482971,0.228455,-0.303833,-0.788818
192,9.863,-0.480000,6.950000,6.860000,-16.500000,-53.562500,-59.250000,0.187500,2.625000,0.187500,117.000000,-3.812500,-44.500000,0.170000,0.090000,-0.110000,-0.660000,6.850000,6.970000,0.483276,0.228577,-0.303284,-0.788818
193,9.911,-0.700000,6.730000,6.890000,-16.500000,-52.562500,-59.687500,-0.125000,0.187500,0.375000,116.937500,-3.812500,-44.500000,-0.010000,-0.120000,0.020000,-0.650000,6.860000,6.970000,0.483704,0.228638,-0.303406,-0.788452
194,9.961,-0.770000,6.600000,6.870000,-15.875000,-52.875000,-59.687500,-2.437500,0.312500,0.187500,116.875000,-3.812500,-44.375000,-0.180000,-0.210000,-0.210000,-0.650000,6.840000,6.980000,0.484009,0.228271,-0.302734,-0.788696
195,10.010,-0.670000,6.800000,7.410000,-15.500000,-52.562500,-58.875000,-3.000000,1.750000,-1.875000,116.937500,-3.937500,-44.312500,-0.030000,-0.010000,0.420000,-0.680000,6.830000,6.990000,0.483887,0.228882,-0.301392,-0.789062
196,10.060,-0.740000,6.820000,7.170000,-15.187500,-52.187500,-58.875000,-5.875000,-0.187500,-2.937500,117.000000,-4.000000,-44.062500,-0.030000,0.040000,0.010000,-0.690000,6.800000,7.020000,0.483704,0.228149,-0.299500,-0.790100
197,10.111,-0.560000,6.810000,6.930000,-14.750000,-52.187500,-58.062500,-1.250000,-3.250000,1.437500,117.062500,-4.000000,-43.875000,0.030000,-0.060000,-0.070000,-0.680000,6.780000,7.040000,0.483704,0.226929,-0.298767,-0.790710
198,10.161,-0.760000,6.740000,6.970000,-14.000000,-52.187500,-58.500000,-1.875000,0.375000,-0.375000,117.062500,-3.875000,-43.812500,-0.050000,0.030000,-0.080000,-0.670000,6.770000,7.050000,0.483948,0.225952,-0.298462,-0.791016
199,10.217,-0.540000,6.830000,6.980000,-13.250000,-51.750000,-60.062500,-1.687500,1.125000,-0.562500,117.062500,-3.937500,-43.750000,0.130000,0.060000,-0.070000,-0.680000,6.760000,7.060000,0.483948,0.226196,-0.297791,-0.791138
200,10.266,-1.080000,6.640000,6.900000,-14.375000,-52.875000,-60.000000,0.875000,5.562500,-0.375000,117.000000,-4.062500,-43.750000,-0.390000,-0.120000,-0.150000,-0.690000,6.760000,7.060000,0.484375,0.226990,-0.297363,-0.790894
201,10.314,-0.980000,6.800000,7.600000,-13.250000,-52.562500,-60.000000,0.125000,6.625000,-1.625000,116.937500,-4.375000,-43.812500,-0.230000,0.030000,0.550000,-0.750000,6.770000,7.050000,0.484497,0.229980,-0.295959,-0.790405
202,10.366,-0.940000,6.630000,7.550000,-13.687500,-52.562500,-60.000000,-1.250000,3.062500,-2.625000,116.937500,-4.625000,-43.750000,-0.150000,-0.120000,0.500000,-0.790000,6.760000,7.050000,0.484558,0.231506,-0.294312,-0.790527
