Index,Time,accel_x,accel_y,accel_z,mag_x,mag_y,mag_z,gyro_x,gyro_y,gyro_z,heading,roll,pitch,linacc_x,linacc_y,linacc_z,gravity_x,gravity_y,gravity_z,quat_w,quat_x,quat_y,quat_z
54,3.822,-0.890,1.100,9.540,-69.688,-55.500,-42.250,0.000,-0.062,0.000,145.875,-4.938,-6.438,-0.040,0.000,-0.160,-0.840,1.100,9.700,0.293,0.058,-0.041,-0.954
55,3.893,-0.885,1.095,9.575,-69.688,-55.281,-43.000,0.031,-0.031,0.031,145.875,-4.938,-6.438,-0.035,-0.005,-0.125,-0.840,1.100,9.700,0.293,0.058,-0.041,-0.954
56,3.965,-0.900,1.105,9.650,-69.688,-55.062,-43.219,0.062,-0.156,0.062,145.875,-4.938,-6.438,-0.020,0.005,-0.110,-0.840,1.100,9.700,0.293,0.058,-0.041,-0.954
57,4.036,-0.905,1.105,9.640,-69.688,-54.656,-43.094,0.031,-0.281,0.062,145.875,-4.938,-6.438,-0.070,0.000,-0.065,-0.840,1.100,9.700,0.293,0.058,-0.041,-0.954
57,4.036,-0.905,1.105,9.640,-69.688,-54.656,-43.094,0.031,-0.281,0.062,145.875,-4.938,-6.438,-0.070,0.000,-0.065,-0.840,1.100,9.700,0.293,0.058,-0.041,-0.954
58,4.108,-0.920,1.105,9.630,-69.469,-54.875,-43.875,-0.062,0.125,0.031,145.875,-4.938,-6.438,-0.080,-0.010,-0.065,-0.840,1.100,9.700,0.293,0.058,-0.041,-0.954
59,4.180,-0.915,1.110,9.620,-69.469,-55.500,-43.406,-0.157,-0.062,0.062,145.875,-4.938,-6.438,-0.085,0.000,-0.055,-0.840,1.100,9.700,0.293,0.058,-0.041,-0.954
60,4.253,-0.945,1.105,9.645,-69.469,-55.281,-43.406,-0.094,-0.062,0.000,145.875,-4.906,-6.438,-0.155,0.005,0.015,-0.840,1.100,9.700,0.293,0.058,-0.041,-0.954
61,4.321,-0.945,1.110,9.635,-69.656,-55.062,-43.062,0.000,0.281,-0.125,145.875,-4.875,-6.438,-0.085,0.005,-0.100,-0.840,1.100,9.700,0.293,0.058,-0.041,-0.954
62,4.392,-0.930,1.110,9.645,-69.875,-55.406,-43.032,-0.031,0.031,-0.093,145.875,-4.875,-6.438,-0.065,0.005,-0.090,-0.840,1.100,9.700,0.293,0.058,-0.041,-0.954
63,4.464,-0.920,1.100,9.620,-69.469,-55.406,-44.438,0.032,-0.219,-0.031,145.875,-4.875,-6.438,-0.070,0.005,-0.085,-0.840,1.100,9.700,0.293,0.058,-0.041,-0.954
63,4.464,-0.920,1.100,9.620,-69.469,-55.406,-44.438,0.032,-0.219,-0.031,145.875,-4.875,-6.438,-0.070,0.005,-0.085,-0.840,1.100,9.700,0.293,0.058,-0.041,-0.954
64,4.535,-0.915,1.095,9.610,-69.469,-54.656,-43.844,0.000,-0.032,-0.094,145.875,-4.875,-6.438,-0.065,0.000,-0.090,-0.840,1.100,9.700,0.293,0.058,-0.041,-0.954
65,4.606,-0.915,1.095,9.615,-70.031,-54.250,-42.438,-0.125,0.062,-0.063,145.875,-4.875,-6.438,-0.065,0.640,-0.080,-0.840,1.100,9.700,0.293,0.058,-0.041,-0.954
66,4.676,-0.910,1.105,9.655,-70.031,-54.469,-42.875,-0.062,0.094,-0.032,145.875,-4.875,-6.438,-0.065,0.650,-0.045,-0.840,1.100,9.700,0.293,0.058,-0.041,-0.954
67,4.749,-0.910,1.110,9.650,-70.219,-54.875,-43.218,0.000,-0.031,-0.062,145.875,-4.875,-6.438,-0.105,0.015,0.030,-0.840,1.100,9.700,0.293,0.058,-0.041,-0.954
68,4.819,-0.915,1.095,9.625,-70.406,-54.656,-43.156,0.031,-0.125,0.000,145.875,-4.875,-6.438,-0.070,0.005,-0.070,-0.840,1.100,9.700,0.293,0.058,-0.041,-0.954
69,4.896,-0.960,1.100,9.715,-69.875,-54.656,-43.625,0.000,0.188,-0.062,145.875,-4.875,-6.438,-0.080,0.000,-0.065,-0.840,1.100,9.700,0.293,0.058,-0.041,-0.954
69,4.896,-0.960,1.100,9.715,-69.875,-54.656,-43.625,0.000,0.188,-0.062,145.875,-4.875,-6.438,-0.080,0.000,-0.065,-0.840,1.100,9.700,0.293,0.058,-0.041,-0.954
70,4.968,-0.935,1.110,9.620,-69.688,-55.062,-42.875,-0.031,0.000,-0.032,145.875,-4.875,-6.438,-0.080,0.000,-0.055,-0.840,1.100,9.700,0.293,0.058,-0.041,-0.954
71,5.040,-0.930,1.105,9.615,-70.219,-55.281,-42.062,-0.031,0.000,-0.032,145.875,-4.875,-6.438,-0.070,0.000,-0.060,-0.840,-162.740,9.700,0.293,0.058,-0.041,-0.954
72,5.112,-0.925,1.105,9.620,-70.750,-55.094,-42.468,0.000,-0.093,-0.032,145.875,-4.875,-6.438,-0.065,-0.005,-0.070,-0.840,-162.740,9.700,0.293,0.058,-0.041,-0.954
73,5.184,-0.925,1.105,9.620,-70.406,-54.688,-42.656,0.000,0.063,-0.032,145.875,-4.875,-6.438,-0.065,-0.005,-0.085,-0.840,1.100,9.700,0.293,0.058,-0.041,-0.954
74,5.256,-0.975,1.115,9.690,-70.062,-54.875,-42.875,0.000,0.000,-0.062,145.875,-4.875,-6.438,-0.125,0.010,-0.030,-0.840,1.100,9.700,0.293,0.058,-0.041,-0.954
74,5.256,-0.975,1.115,9.690,-70.062,-54.875,-42.875,0.000,0.000,-0.062,145.875,-4.875,-6.438,-0.125,0.010,-0.030,-0.840,1.100,9.700,0.293,0.058,-0.041,-0.954
75,5.325,-0.985,1.115,9.705,-69.875,-54.875,-43.281,0.031,-0.032,-0.031,145.875,-4.875,-6.438,-0.085,0.020,-0.095,-0.840,1.100,9.700,0.293,0.058,-0.041,-0.954
76,5.397,-0.975,1.105,9.685,-69.688,-54.125,-43.656,0.000,0.062,-0.093,145.875,-4.875,-6.438,-0.075,0.015,-0.110,-0.840,1.100,9.700,0.293,0.058,-0.041,-0.954
77,5.468,-0.930,1.100,9.595,-69.875,-54.531,-43.406,0.000,0.000,-0.125,145.875,-4.875,-6.438,-0.080,0.000,-0.105,-0.840,1.100,9.700,0.293,0.058,-0.041,-0.954
78,5.540,-0.935,1.115,9.615,-69.875,-55.500,-42.812,0.000,0.094,-0.125,145.875,-4.875,-6.438,-0.015,-0.010,-0.205,-0.840,1.100,9.700,0.293,0.058,-0.041,-0.954
79,5.611,-0.930,1.115,9.635,-69.281,-55.094,-43.281,-0.031,0.188,-0.093,145.875,-4.875,-6.438,-0.015,-0.005,-0.185,-0.840,1.100,9.700,0.293,0.058,-0.041,-0.954
80,5.681,-0.920,1.090,9.630,-69.062,-54.688,-42.875,-0.093,-0.125,0.032,145.875,-4.875,-6.438,-0.010,-0.005,-0.170,-0.840,1.100,9.700,0.293,0.058,-0.041,-0.954
81,5.752,-0.930,1.105,9.620,-69.656,-54.688,-42.406,-0.093,-0.188,0.062,145.875,-4.875,-6.438,-0.075,0.000,-0.080,-0.840,-162.740,9.700,0.293,0.058,-0.041,-0.954
81,5.752,-0.930,1.105,9.620,-69.656,-54.688,-42.406,-0.093,-0.188,0.062,145.875,-4.875,-6.438,-0.075,0.000,-0.080,-0.840,-162.740,9.700,0.293,0.058,-0.041,-0.954
82,5.823,-0.930,1.105,9.620,-70.219,-55.438,-42.781,-0.031,0.062,0.031,145.875,-4.875,-6.438,-0.075,-0.005,-0.075,-0.840,-162.740,9.700,0.293,0.058,-0.041,-0.954
83,5.895,-0.930,1.085,9.615,-69.625,-55.219,-43.438,0.031,-0.157,0.031,145.875,-4.875,-6.438,-0.080,-0.015,-0.065,-0.840,1.100,9.700,0.293,0.058,-0.041,-0.954
84,5.967,-0.920,1.105,9.625,-69.469,-54.469,-43.062,0.000,-0.062,0.062,145.875,-4.875,-6.438,-0.085,0.000,-0.060,-0.840,1.100,9.700,0.293,0.058,-0.041,-0.954
85,6.038,-0.905,1.120,9.620,-69.469,-54.875,-42.656,-0.031,-0.094,0.093,145.875,-4.875,-6.438,-0.080,0.005,-0.080,-0.840,1.100,9.700,0.293,0.058,-0.041,-0.954
86,6.109,-0.840,1.105,9.510,-69.281,-55.281,-43.281,-0.031,0.062,0.000,145.875,-4.875,-6.438,-0.075,0.000,-0.090,-0.840,1.100,9.700,0.293,0.058,-0.041,-0.954
87,6.177,-0.855,1.095,9.535,-69.875,-55.094,-43.500,0.000,0.093,0.000,145.875,-4.875,-6.438,-0.070,0.010,-0.075,-0.840,1.100,9.700,0.293,0.058,-0.041,-0.954
87,6.177,-0.855,1.095,9.535,-69.875,-55.094,-43.500,0.000,0.093,0.000,145.875,-4.875,-6.438,-0.070,0.010,-0.075,-0.840,1.100,9.700,0.293,0.058,-0.041,-0.954
88,6.249,-0.920,1.095,9.610,-69.875,-54.469,-43.094,0.031,-0.157,0.093,145.875,-4.875,-6.438,-0.075,0.010,-0.075,-0.840,1.100,9.700,0.293,0.058,-0.041,-0.954
89,6.321,-0.975,1.100,9.690,-69.469,-54.656,-42.625,-0.031,-0.250,0.093,145.875,-4.875,-6.438,-0.080,0.000,-0.090,-0.840,1.100,9.700,0.293,0.058,-0.041,-0.954
90,6.392,-0.920,1.095,9.620,-69.812,-54.875,-42.406,-0.031,-0.250,0.062,145.875,-4.875,-6.438,-0.080,0.000,-0.080,-0.840,1.100,9.700,0.293,0.058,-0.041,-0.954
91,6.463,-0.925,1.105,9.630,-70.375,-55.094,-43.469,0.031,-0.188,0.062,145.875,-4.875,-6.438,-0.080,0.005,-0.070,-0.840,1.100,9.700,0.293,0.058,-0.041,-0.954
92,6.532,-0.925,1.110,9.625,-69.812,-55.281,-43.688,0.062,-0.032,0.000,145.875,-4.875,-6.438,-0.080,0.005,-0.075,-0.840,1.100,9.700,0.293,0.058,-0.041,-0.954
93,6.604,-0.920,1.095,9.615,-69.656,-55.062,-42.875,0.031,-0.093,0.000,145.875,-4.875,-6.438,-0.070,0.000,-0.100,-0.840,1.100,9.700,0.293,0.058,-0.041,-0.954
93,6.604,-0.920,1.095,9.615,-69.656,-55.062,-42.875,0.031,-0.093,0.000,145.875,-4.875,-6.438,-0.070,0.000,-0.100,-0.840,1.100,9.700,0.293,0.058,-0.041,-0.954
94,6.676,-0.930,1.105,9.635,-69.875,-55.281,-43.062,0.031,0.032,0.031,145.875,-4.875,-6.438,-0.085,0.000,-0.080,-0.840,1.100,9.700,0.293,0.058,-0.041,-0.954
95,6.749,-0.920,1.110,9.615,-69.875,-55.094,-43.281,0.031,0.000,0.000,145.875,-4.875,-6.438,-0.085,0.000,-0.050,-0.840,1.100,9.060,0.293,0.058,-0.041,-0.954
96,6.819,-0.920,1.100,9.630,-69.469,-55.094,-43.281,-0.031,0.000,-0.031,145.875,-4.875,-6.438,-0.080,0.000,-0.060,-0.840,1.100,9.060,0.293,0.058,-0.041,-0.954
97,6.890,-0.855,1.100,9.530,-69.281,-55.094,-42.812,-0.031,0.000,0.000,145.875,-4.875,-6.438,-0.085,0.000,-0.070,-0.840,1.100,9.700,0.293,0.058,-0.041,-0.954
98,6.960,-0.915,1.105,9.610,-69.688,-54.875,-42.031,0.031,0.062,0.031,145.875,-4.875,-6.438,-0.090,0.000,-0.080,-0.840,1.100,9.700,0.293,0.058,-0.041,-0.954
99,7.029,-0.920,1.115,9.630,-69.875,-55.062,-42.281,0.000,0.219,-0.031,145.875,-4.875,-6.438,-0.085,0.000,-0.065,-0.840,1.100,9.700,0.293,0.058,-0.041,-0.954
99,7.029,-0.920,1.115,9.630,-69.875,-55.062,-42.281,0.000,0.219,-0.031,145.875,-4.875,-6.438,-0.085,0.000,-0.065,-0.840,1.100,9.700,0.293,0.058,-0.041,-0.954
100,7.099,-0.910,1.100,9.625,-69.875,-55.062,-42.812,-0.031,0.063,-0.031,145.875,-4.875,-6.438,-0.075,-0.010,-0.085,-0.840,1.100,9.700,0.293,0.058,-0.041,-0.954
101,7.170,-0.905,1.100,9.620,-69.688,-55.281,-43.218,-0.031,0.094,-0.031,145.875,-4.875,-6.438,-0.085,0.005,-0.085,-0.840,1.100,9.700,0.293,0.058,-0.041,-0.954
102,7.241,-0.910,1.120,9.605,-69.688,-55.094,-43.282,0.000,-0.031,0.000,145.875,-4.875,-6.438,-0.075,0.015,-0.085,-0.840,1.100,9.700,0.293,0.058,-0.041,-0.954
103,7.311,-0.925,1.110,9.600,-69.875,-55.094,-43.469,-0.032,0.063,0.062,145.875,-4.875,-6.438,-0.070,0.005,-0.100,-0.840,1.100,9.700,0.293,0.058,-0.041,-0.954
104,7.380,-0.915,1.105,9.590,-70.219,-55.500,-43.250,-0.062,-0.062,0.062,145.875,-4.875,-6.438,-0.065,0.005,-0.080,-0.840,1.100,9.700,0.293,0.058,-0.041,-0.954
105,7.450,-0.920,1.105,9.625,-70.219,-55.094,-42.469,0.000,-0.031,0.062,145.875,-4.875,-6.438,-0.070,0.000,-0.045,-0.840,1.100,9.700,0.293,0.058,-0.041,-0.954
105,7.450,-0.920,1.105,9.625,-70.219,-55.094,-42.469,0.000,-0.031,0.062,145.875,-4.875,-6.438,-0.070,0.000,-0.045,-0.840,1.100,9.700,0.293,0.058,-0.041,-0.954
106,7.521,-0.900,1.125,9.585,-70.062,-54.469,-42.469,-0.031,-0.094,0.093,145.875,-4.875,-6.438,-0.095,0.015,-0.055,-0.840,1.100,9.700,0.293,0.058,-0.041,-0.954
107,7.591,-0.910,1.160,9.605,-69.875,-54.875,-42.406,-0.031,-0.125,0.032,145.875,-4.875,-6.438,-0.085,0.035,-0.115,-0.840,1.100,9.700,0.293,0.058,-0.041,-0.954
108,7.662,-0.900,1.140,9.595,-69.469,-55.500,-42.812,0.000,-0.093,-0.062,145.875,-4.875,-6.438,-0.070,0.020,-0.080,-0.840,1.100,9.700,0.293,0.058,-0.041,-0.954
109,7.731,-0.900,1.105,9.615,-69.656,-55.500,-42.656,0.000,0.000,-0.031,145.875,-4.875,-6.438,-0.055,0.000,-0.085,-0.840,1.100,9.700,0.293,0.058,-0.041,-0.954
110,7.802,-0.905,1.115,9.610,-70.062,-55.500,-42.875,-0.031,0.188,0.000,145.875,-4.875,-6.438,-0.085,0.025,-0.060,-0.840,1.100,9.700,0.293,0.058,-0.041,-0.954
111,7.872,-0.925,1.120,9.630,-70.062,-55.500,-42.875,-0.031,0.219,-0.062,145.875,-4.875,-6.438,-0.075,0.025,-0.080,-0.840,1.100,9.700,0.293,0.058,-0.041,-0.954
111,7.872,-0.925,1.120,9.630,-70.062,-55.500,-42.875,-0.031,0.219,-0.062,145.875,-4.875,-6.438,-0.075,0.025,-0.080,-0.840,1.100,9.700,0.293,0.058,-0.041,-0.954
112,7.943,-0.905,1.105,9.635,-70.062,-55.281,-42.062,-0.031,0.250,-0.093,145.875,-4.875,-6.438,-0.090,-0.015,-0.065,-0.840,1.100,9.700,0.293,0.058,-0.041,-0.954
113,8.014,-0.930,1.110,9.645,-69.875,-55.062,-42.688,-0.062,0.218,-0.093,145.875,-4.875,-6.438,-0.090,0.015,-0.090,-0.840,1.100,9.700,0.293,0.058,-0.041,-0.954
114,8.083,-0.920,1.090,9.610,-69.875,-55.062,-43.875,-0.125,0.218,-0.062,145.875,-4.875,-6.438,-0.090,0.025,-0.060,-0.840,1.100,9.700,0.293,0.058,-0.041,-0.954
115,8.154,-0.920,1.085,9.630,-69.875,-54.656,-43.875,-0.125,0.031,0.031,145.875,-4.875,-6.438,-0.060,-0.005,-0.075,-0.840,1.100,9.700,0.293,0.058,-0.041,-0.954
116,8.225,-0.930,1.085,9.620,-69.875,-54.656,-42.875,-0.031,0.031,0.093,145.875,-4.875,-6.438,-0.075,-0.010,-0.060,-0.840,1.100,9.700,0.293,0.058,-0.041,-0.954
117,8.295,-0.940,1.080,9.610,-70.062,-55.062,-42.406,-0.094,-0.094,0.062,145.875,-4.875,-6.438,-0.070,-0.015,-0.070,-0.840,1.100,9.700,0.293,0.058,-0.041,-0.954
118,8.366,-0.920,1.100,9.630,-69.656,-54.875,-42.031,-0.157,-0.031,0.062,145.875,-4.875,-6.438,-0.075,-0.010,-0.075,-0.840,1.100,9.700,0.293,0.058,-0.041,-0.954
118,8.366,-0.920,1.100,9.630,-69.656,-54.875,-42.031,-0.157,-0.031,0.062,145.875,-4.875,-6.438,-0.075,-0.010,-0.075,-0.840,1.100,9.700,0.293,0.058,-0.041,-0.954
119,8.434,-0.910,1.105,9.615,-69.812,-54.875,-42.094,-0.093,-0.062,0.000,145.875,-4.875,-6.438,-0.130,-0.005,0.005,-0.840,1.100,9.700,0.293,0.058,-0.041,-0.954
120,8.505,-0.925,1.100,9.615,-69.812,-54.875,-43.282,-0.125,-4.062,-0.093,145.875,-4.875,-6.438,-0.060,-0.005,-0.085,-0.840,1.100,9.700,0.293,0.058,-0.041,-0.954
121,8.576,-0.920,1.095,9.610,-69.250,-54.688,-43.688,-0.157,-4.031,0.032,145.875,-4.875,-6.438,-0.085,-0.010,-0.085,-0.840,1.100,9.700,0.293,0.058,-0.041,-0.954
122,8.648,-0.925,1.100,9.595,-69.469,-54.875,-43.094,-0.125,0.250,-0.032,145.875,-4.875,-6.438,-0.100,-0.005,-0.110,-0.840,1.100,9.700,0.293,0.058,-0.041,-0.954
123,8.718,-0.935,1.100,9.620,-70.031,-55.281,-43.282,-0.062,0.188,-0.094,145.875,-4.875,-6.438,-0.095,0.000,-0.080,-0.835,1.100,9.700,0.293,0.058,-0.041,-0.954
124,8.786,-0.960,1.090,9.690,-69.625,-55.500,-43.688,-0.062,-0.032,0.031,145.875,-4.875,-6.438,-0.075,-0.005,-0.080,-0.830,1.100,9.700,0.293,0.058,-0.041,-0.954
124,8.786,-0.960,1.090,9.690,-69.625,-55.500,-43.688,-0.062,-0.032,0.031,145.875,-4.875,-6.438,-0.075,-0.005,-0.080,-0.830,1.100,9.700,0.293,0.058,-0.041,-0.954
125,8.857,-0.910,1.095,9.590,-69.062,-54.875,-42.688,-0.093,-0.063,0.093,145.875,-4.875,-6.438,-0.050,-0.005,-0.105,-0.830,1.100,9.700,0.293,0.058,-0.041,-0.954
126,8.927,-0.915,1.105,9.635,-69.469,-54.656,-42.468,-0.093,-0.125,0.000,145.875,-4.875,-6.438,-0.075,0.005,-0.105,-0.830,1.100,9.700,0.293,0.058,-0.041,-0.954
127,8.997,-0.890,1.095,9.615,-69.469,-54.875,-43.062,-0.093,-0.031,-0.093,145.875,-4.875,-6.438,-0.075,0.010,-0.100,-0.830,1.100,9.700,0.293,0.058,-0.041,-0.954
128,9.067,-0.870,1.090,9.535,-69.250,-54.875,-43.062,-0.093,-0.125,-0.031,145.875,-4.875,-6.438,-0.080,-0.005,-0.070,-0.830,1.100,9.700,0.293,0.058,-0.041,-0.954
129,9.136,-0.925,1.120,9.640,-69.250,-55.062,-43.062,-0.093,0.188,-0.094,145.875,-4.875,-6.438,-0.075,-0.005,-0.105,-0.830,1.100,9.700,0.293,0.058,-0.041,-0.954
130,9.206,-0.910,1.120,9.610,-69.062,-55.281,-43.062,-0.062,0.281,-0.125,145.875,-4.875,-6.438,-0.110,-0.010,-0.065,-0.830,1.100,9.700,0.293,0.058,-0.041,-0.954
130,9.206,-0.910,1.120,9.610,-69.062,-55.281,-43.062,-0.062,0.281,-0.125,145.875,-4.875,-6.438,-0.110,-0.010,-0.065,-0.830,1.100,9.700,0.293,0.058,-0.041,-0.954
131,9.277,-0.920,1.100,9.615,-69.469,-55.281,-43.281,-0.062,-0.062,-0.062,145.875,-4.875,-6.438,-0.100,-0.025,-0.120,-0.830,1.100,9.700,0.293,0.058,-0.041,-0.954
132,9.345,-0.915,1.120,9.635,-70.062,-55.281,-43.031,-0.031,0.125,-0.093,145.875,-4.875,-6.438,-0.105,-0.015,-0.090,-0.830,1.100,9.700,0.293,0.057,-0.041,-0.954
133,9.416,-0.940,1.105,9.630,-70.219,-55.094,-43.031,-0.062,0.094,-0.093,145.875,-4.875,-6.438,-0.090,-0.010,-0.085,-0.830,1.100,9.700,0.293,0.057,-0.041,-0.954
134,9.486,-0.960,1.085,9.610,-70.031,-54.875,-43.031,-0.062,-0.032,0.063,145.875,-4.875,-6.438,-0.090,-0.010,-0.055,-0.830,1.100,9.700,0.293,0.057,-0.041,-0.954
135,9.556,-0.960,1.105,9.630,-69.875,-54.875,-42.562,-0.062,0.375,0.125,145.875,-4.875,-6.438,-0.070,-0.005,-0.080,-0.830,1.100,9.700,0.293,0.057,-0.041,-0.954
136,9.627,-0.950,1.085,9.625,-69.656,-54.875,-42.562,-0.062,0.063,0.031,145.875,-4.875,-6.438,-0.080,0.000,-0.065,-0.830,1.100,9.700,0.293,0.057,-0.041,-0.954
137,9.697,-0.920,1.095,9.610,-69.656,-55.062,-42.156,-0.125,-0.093,-0.031,145.875,-4.875,-6.438,-0.075,-0.005,-0.085,-0.830,1.100,9.700,0.293,0.058,-0.041,-0.954
137,9.697,-0.920,1.095,9.610,-69.656,-55.062,-42.156,-0.125,-0.093,-0.031,145.875,-4.875,-6.438,-0.075,-0.005,-0.085,-0.830,1.100,9.700,0.293,0.058,-0.041,-0.954
138,9.767,-0.915,1.125,9.610,-70.406,-55.062,-42.406,-0.156,-0.250,-0.031,145.875,-4.875,-6.438,-0.080,0.010,-0.085,-0.830,1.100,9.700,0.293,0.058,-0.041,-0.954
139,9.838,-0.895,1.125,9.590,-69.812,-55.406,-43.281,-0.093,-0.125,-0.125,145.875,-4.875,-6.438,-0.095,0.015,-0.065,-0.830,1.100,9.700,0.293,0.057,-0.041,-0.954
140,9.908,-0.905,1.115,9.675,-69.469,-55.219,-42.875,-0.093,-0.125,-0.062,145.875,-4.875,-6.438,-0.085,0.010,-0.085,-0.830,1.100,9.700,0.293,0.057,-0.041,-0.954
141,9.978,-0.900,1.105,9.620,-69.875,-55.094,-42.406,-0.031,-0.125,0.032,145.875,-4.875,-6.438,-0.115,0.020,-0.040,-0.830,1.100,9.700,0.293,0.057,-0.041,-0.954
142,10.046,-0.920,1.110,9.580,-69.688,-55.094,-42.781,-0.062,0.157,-0.062,145.875,-4.875,-6.438,-0.090,0.650,-0.120,-0.830,1.100,9.700,0.293,0.057,-0.041,-0.954
143,10.117,-0.885,1.110,9.550,-69.688,-54.875,-43.031,-0.093,0.063,-0.031,145.875,-4.875,-6.438,-0.075,0.650,-0.070,-0.830,1.100,9.700,0.293,0.057,-0.041,-0.954
143,10.117,-0.885,1.110,9.550,-69.688,-54.875,-43.031,-0.093,0.063,-0.031,145.875,-4.875,-6.438,-0.075,0.650,-0.070,-0.830,1.100,9.700,0.293,0.057,-0.041,-0.954
144,10.188,-0.910,1.100,9.605,-69.688,-55.062,-43.281,-0.093,-0.125,0.000,145.875,-4.875,-6.438,-0.065,0.005,-0.080,-0.830,1.100,9.700,0.293,0.057,-0.041,-0.954
145,10.259,-0.930,1.085,9.615,-69.688,-54.656,-43.281,-0.157,-0.094,-0.031,145.875,-4.875,-6.438,-0.100,-0.005,-0.080,-0.830,1.100,9.700,0.293,0.057,-0.041,-0.954
146,10.330,-0.940,1.095,9.630,-69.125,-54.656,-24.281,-0.219,0.125,-0.031,145.875,-4.875,-6.438,-0.090,-0.010,-0.105,-0.830,1.100,9.700,0.293,0.057,-0.041,-0.954
147,10.402,-0.915,1.100,9.600,-68.906,-55.062,-23.688,-0.156,-0.125,0.062,145.875,-4.875,-6.438,-0.090,-0.005,-0.090,-0.830,1.100,9.700,0.293,0.057,-0.041,-0.954
148,10.472,-0.910,1.100,9.600,-69.656,-54.656,-42.218,-0.093,-0.062,0.062,145.875,-8.875,-6.438,-0.075,0.000,-0.130,-0.830,1.100,9.700,0.293,0.057,-0.041,-0.954
149,10.542,-0.915,1.105,9.605,-70.062,-54.469,-42.562,-0.032,0.032,-0.031,145.875,-8.875,-6.438,-0.080,0.005,-0.085,-0.830,1.100,9.700,0.293,0.057,-0.041,-0.954
149,10.542,-0.915,1.105,9.605,-70.062,-54.469,-42.562,-0.032,0.032,-0.031,145.875,-8.875,-6.438,-0.080,0.005,-0.085,-0.830,1.100,9.700,0.293,0.057,-0.041,-0.954
150,10.612,-0.925,1.100,9.590,-69.875,-54.688,-43.406,0.000,0.000,0.000,145.875,-4.875,-6.438,-0.135,0.010,0.035,-0.830,1.100,9.700,0.293,0.057,-0.041,-0.954
151,10.683,-0.935,1.080,9.630,-69.688,-54.688,-43.062,-0.031,-0.094,0.031,145.875,-4.875,-6.438,-0.095,0.000,-0.115,-0.830,1.100,9.700,0.293,0.057,-0.041,-0.954
152,10.753,-0.915,1.075,9.610,-69.688,-54.469,-42.062,-0.062,-0.062,0.031,145.875,-4.875,-6.438,-0.105,-0.005,-0.100,-0.830,1.100,9.700,0.293,0.057,-0.041,-0.954
153,10.824,-0.925,1.100,9.610,-69.875,-54.469,-42.656,-0.093,-0.157,0.093,145.875,-4.875,-6.438,-0.080,0.005,-0.130,-0.830,1.100,9.700,0.293,0.057,-0.041,-0.954
154,10.893,-0.930,1.110,9.615,-69.875,-54.875,-42.812,-0.125,-0.188,0.093,145.875,-4.875,-6.438,-0.075,0.010,-0.100,-0.830,1.100,9.700,0.293,0.057,-0.041,-0.954
155,10.964,-0.935,1.115,9.615,-69.688,-54.875,-42.812,-0.063,-0.032,0.000,145.875,-4.875,-6.438,-0.080,0.005,-0.090,-0.830,1.100,9.700,0.293,0.057,-0.041,-0.954
155,10.964,-0.935,1.115,9.615,-69.688,-54.875,-42.812,-0.063,-0.032,0.000,145.875,-4.875,-6.438,-0.080,0.005,-0.090,-0.830,1.100,9.700,0.293,0.057,-0.041,-0.954
156,11.034,-0.930,1.115,9.605,-69.281,-54.469,-43.062,0.031,-0.093,-0.093,145.875,-4.875,-6.438,-0.090,0.005,-0.090,-0.830,1.100,9.700,0.293,0.057,-0.041,-0.954
157,11.105,-0.930,1.095,9.620,-69.469,-54.250,-42.406,0.000,0.000,-0.093,145.875,-4.875,-6.438,-0.095,-0.005,-0.075,-0.830,1.100,9.700,0.293,0.057,-0.041,-0.954
158,11.180,-0.940,1.105,9.675,-69.875,-54.656,-42.625,-0.031,0.000,0.000,145.875,-4.875,-6.438,-0.085,0.005,-0.085,-0.830,1.100,9.700,0.293,0.057,-0.041,-0.954
159,11.248,-0.920,1.110,9.620,-69.688,-54.656,-43.031,0.000,0.063,0.031,145.875,-4.875,-6.438,-0.080,0.010,-0.085,-0.830,1.100,9.700,0.293,0.057,-0.041,-0.954
160,11.319,-0.930,1.095,9.615,-69.688,-54.469,-43.031,0.031,0.000,0.000,145.875,-4.875,-6.438,-0.090,0.000,-0.090,-0.830,1.100,9.700,0.293,0.057,-0.041,-0.954
161,11.390,-0.925,1.100,9.640,-69.875,-54.469,-43.281,0.000,0.187,0.000,145.875,-4.875,-6.438,-0.090,0.000,-0.065,-0.830,1.100,9.700,0.293,0.057,-0.041,-0.954
161,11.390,-0.925,1.100,9.640,-69.875,-54.469,-43.281,0.000,0.187,0.000,145.875,-4.875,-6.438,-0.090,0.000,-0.065,-0.830,1.100,9.700,0.293,0.057,-0.041,-0.954
162,11.461,-0.895,1.095,9.620,-69.875,-54.875,-43.281,0.000,0.000,0.031,145.875,-4.875,-6.438,-0.065,-0.010,-0.080,-0.830,1.100,9.700,0.293,0.057,-0.041,-0.954
163,11.532,-0.880,1.090,9.625,-69.875,-55.281,-43.875,-0.031,0.000,0.031,145.875,-4.875,-6.438,-0.055,-0.010,-0.075,-0.830,1.100,9.700,0.293,0.057,-0.041,-0.954
164,11.601,-0.885,1.090,9.630,-69.469,-55.625,-43.656,0.000,0.031,0.031,145.875,-4.875,-6.438,-0.060,-0.005,-0.075,-0.830,1.100,9.700,0.293,0.057,-0.041,-0.954
165,11.673,-0.915,1.080,9.635,-69.281,-55.844,-42.406,0.062,0.000,0.000,145.875,-4.875,-6.438,-0.140,0.000,0.060,-0.830,1.100,9.700,0.293,0.057,-0.041,-0.954
166,11.744,-0.930,1.095,9.665,-69.281,-55.094,-42.156,0.000,0.000,-0.031,145.875,-4.875,-6.438,-0.080,0.010,0.000,-0.830,1.100,9.700,0.293,0.057,-0.041,-0.954
167,11.816,-0.930,1.090,9.660,-69.281,-55.219,-42.375,0.032,-0.250,0.000,145.875,-4.875,-6.438,-0.070,0.010,-0.015,-0.830,1.100,9.700,0.293,0.057,-0.041,-0.954
167,11.816,-0.930,1.090,9.660,-69.281,-55.219,-42.375,0.032,-0.250,0.000,145.875,-4.875,-6.438,-0.070,0.010,-0.015,-0.830,1.100,9.700,0.293,0.057,-0.041,-0.954
168,11.888,-0.915,1.085,9.625,-69.469,-55.750,-42.969,0.093,-0.250,0.062,145.875,-4.875,-6.438,-0.070,-0.010,-0.060,-0.830,1.100,9.700,0.293,0.057,-0.041,-0.954
169,11.961,-0.970,1.120,9.745,-69.469,-55.969,-43.000,0.031,-0.125,0.032,145.875,-4.875,-6.438,-0.075,0.000,-0.065,-0.830,1.100,9.700,0.293,0.057,-0.041,-0.954
170,12.033,-0.920,1.115,9.625,-70.031,-55.625,-43.062,-0.031,0.000,-0.062,145.875,-4.875,-6.438,-0.080,0.010,-0.080,-0.830,1.100,9.700,0.293,0.057,-0.041,-0.954
171,12.102,-0.920,1.095,9.610,-70.031,-55.062,-43.468,-0.062,0.062,-0.062,145.875,-4.875,-6.438,-0.080,-0.005,-0.095,-0.830,1.100,9.700,0.293,0.057,-0.041,-0.954
172,12.174,-0.985,1.105,9.760,-69.281,-55.062,-42.656,-0.031,0.281,-0.031,145.875,-4.875,-6.438,-0.145,0.005,0.050,-0.830,1.100,9.700,0.293,0.057,-0.041,-0.954
172,12.174,-0.985,1.105,9.760,-69.281,-55.062,-42.656,-0.031,0.281,-0.031,145.875,-4.875,-6.438,-0.145,0.005,0.050,-0.830,1.100,9.700,0.293,0.057,-0.041,-0.954
173,12.247,-0.910,1.105,9.620,-69.062,-55.281,-42.625,0.000,0.063,-0.031,145.875,-4.875,-6.438,-0.130,0.005,-0.015,-0.830,1.100,9.700,0.293,0.057,-0.041,-0.954
174,12.318,-0.910,1.100,9.625,-69.469,-55.281,-42.781,-0.031,0.438,-0.125,145.875,-4.875,-6.438,-0.080,0.005,-0.080,-0.830,1.100,9.700,0.293,0.057,-0.041,-0.954
175,12.390,-0.920,1.105,9.600,-69.875,-55.062,-42.562,-0.031,-0.062,-0.063,145.875,1019.125,-6.438,-0.090,0.005,-0.035,-0.830,1.100,9.700,0.293,0.057,-0.041,-0.954
176,12.461,-0.930,1.105,9.575,-69.875,-55.281,-42.156,0.031,-0.344,-0.032,145.875,1019.125,-6.438,-0.095,0.005,-0.080,-0.830,1.100,9.700,0.293,0.057,-0.041,-0.954
177,12.534,-0.990,1.100,9.725,-70.031,-55.281,-42.000,0.062,-0.125,0.032,145.875,-4.875,-6.438,-0.095,0.005,-0.075,-0.830,1.100,9.700,0.293,0.057,-0.041,-0.954
178,12.603,-0.920,1.095,9.615,-70.031,-55.625,-42.000,0.062,-0.031,0.063,145.875,-4.875,-6.438,-0.080,0.000,-0.090,-0.830,1.100,9.700,0.293,0.057,-0.041,-0.954
178,12.603,-0.920,1.095,9.615,-70.031,-55.625,-42.000,0.062,-0.031,0.063,145.875,-4.875,-6.438,-0.080,0.000,-0.090,-0.830,1.100,9.700,0.293,0.057,-0.041,-0.954
179,12.674,-0.905,1.105,9.600,-69.688,-55.625,-42.406,0.031,0.094,0.000,145.875,-4.875,-6.438,-0.070,0.005,-0.100,-0.830,1.100,9.700,0.293,0.057,-0.041,-0.954
180,12.748,-0.915,1.105,9.610,-70.031,-54.875,-43.062,-0.031,0.032,0.031,145.875,-4.875,-6.438,-0.105,0.020,-0.015,-0.830,1.100,9.700,0.293,0.057,-0.041,-0.954
181,12.821,-0.935,1.095,9.625,-70.031,-54.875,-43.062,-0.062,0.250,0.031,145.875,-4.875,-6.438,-0.090,0.010,-0.065,-0.830,1.100,9.700,0.293,0.057,-0.041,-0.954
182,12.892,-0.920,1.090,9.615,-69.688,-54.656,-42.812,-0.031,0.031,0.031,145.875,-4.875,-6.438,-0.100,-0.010,-0.065,-0.830,1.100,9.700,0.293,0.057,-0.041,-0.954
183,12.964,-0.910,1.095,9.620,-69.281,-54.250,-42.812,0.000,-0.031,-0.062,145.875,-4.875,-6.438,-0.085,-0.005,-0.075,-0.830,1.100,9.700,0.293,0.057,-0.041,-0.954
184,13.035,-0.955,1.120,9.755,-69.062,-54.656,-43.281,-0.031,-0.312,-0.062,145.875,-4.875,-6.438,-0.085,0.010,-0.030,-0.830,1.100,9.700,0.293,0.057,-0.041,-0.954
184,13.035,-0.955,1.120,9.755,-69.062,-54.656,-43.281,-0.031,-0.312,-0.062,145.875,-4.875,-6.438,-0.085,0.010,-0.030,-0.830,1.100,9.700,0.293,0.057,-0.041,-0.954
185,13.104,-0.960,1.120,9.755,-69.062,-55.281,-43.094,-0.031,0.000,0.000,145.875,-4.844,-6.438,-0.085,0.010,0.000,-0.830,1.100,9.700,0.293,0.057,-0.041,-0.954
186,13.176,-0.960,1.105,9.680,-69.062,-55.281,-43.094,0.031,0.062,-0.031,145.875,-4.812,-6.438,-0.085,0.000,-0.070,-0.830,1.100,9.700,0.293,0.057,-0.041,-0.954
187,13.247,-0.935,1.105,9.625,-69.469,-54.656,-43.031,-0.032,0.000,-0.062,145.875,-4.812,-6.438,-0.105,0.000,-0.075,-0.830,1.100,9.700,0.293,0.057,-0.041,-0.954
188,13.319,-0.930,1.105,9.595,-69.875,-55.000,-42.562,-0.125,0.094,-0.062,145.875,-4.812,-6.438,-0.080,0.000,-0.090,-0.830,1.100,9.700,0.293,0.057,-0.041,-0.954
189,13.391,-0.935,1.100,9.625,-70.062,-55.750,-42.812,0.000,0.031,-0.062,145.875,-4.812,-6.438,-0.085,0.010,-0.075,-0.830,1.100,9.700,0.293,0.057,-0.041,-0.954
189,13.391,-0.935,1.100,9.625,-70.062,-55.750,-42.812,0.000,0.031,-0.062,145.875,-4.812,-6.438,-0.085,0.010,-0.075,-0.830,1.100,9.700,0.293,0.057,-0.041,-0.954
190,13.460,-0.920,1.105,9.640,-69.469,-55.406,-42.812,0.062,0.000,0.000,145.875,-4.812,-6.438,-0.075,0.020,-0.075,-0.830,1.100,9.700,0.293,0.057,-0.041,-0.954
191,13.532,-0.920,1.110,9.685,-69.469,-55.281,-42.562,-0.031,0.000,-0.063,145.875,-4.812,-6.438,-0.070,0.010,-0.065,-0.830,1.100,9.700,0.293,0.057,-0.041,-0.954
192,13.603,-0.920,1.110,9.690,-69.656,-55.281,-42.406,-0.031,0.562,-0.219,145.875,-4.812,-6.438,-0.100,0.020,0.000,-0.830,1.100,9.700,0.293,0.057,-0.041,-0.954
193,13.675,-0.945,1.105,9.650,-69.656,-54.875,-42.406,0.062,-0.031,-0.094,145.875,-4.812,-6.438,-0.095,0.025,-0.050,-0.830,1.100,9.700,0.293,0.057,-0.041,-0.954
194,13.746,-0.910,1.095,9.615,-69.875,-55.094,-43.156,0.062,-0.188,-0.032,145.875,-4.812,-6.438,-0.105,-0.005,-0.070,-0.830,1.100,9.700,0.293,0.057,-0.041,-0.954
195,13.817,-0.850,1.100,9.525,-69.469,-55.281,-39.375,-0.031,0.000,-0.032,145.875,-4.812,-6.438,-0.075,-0.005,-0.100,-0.830,1.100,9.700,0.293,0.057,-0.041,-0.954
195,13.817,-0.850,1.100,9.525,-69.469,-55.281,-39.375,-0.031,0.000,-0.032,145.875,-4.812,-6.438,-0.075,-0.005,-0.100,-0.830,1.100,9.700,0.293,0.057,-0.041,-0.954
196,13.889,-0.905,1.105,9.600,-69.469,-55.062,-39.000,0.032,-0.156,0.062,145.875,-4.812,-6.438,-0.070,0.005,-0.100,-0.830,1.100,9.700,0.293,0.057,-0.041,-0.954
197,13.957,-0.965,1.120,9.725,-69.469,-54.656,-43.000,0.093,0.032,0.000,145.875,-4.812,-6.438,-0.105,0.045,-0.110,-0.830,1.100,9.700,0.293,0.057,-0.041,-0.954
198,14.029,-0.990,1.095,9.765,-69.469,-54.656,-43.031,0.062,0.125,-4.062,145.875,-4.812,-6.438,-0.130,0.025,-0.075,-0.830,1.100,9.700,0.293,0.057,-0.041,-0.954
199,14.100,-0.935,1.080,9.615,-69.688,-55.062,-42.812,0.093,-0.032,-4.031,145.875,-4.812,-6.438,-0.100,-0.020,-0.090,-0.830,1.100,9.700,0.293,0.057,-0.041,-0.954
200,14.172,-0.930,1.125,9.590,-69.281,-55.062,-42.781,0.093,0.093,-0.031,145.875,-4.844,-6.438,-0.095,0.020,-0.115,-0.830,1.100,9.700,0.293,0.057,-0.041,-0.954
201,14.243,-0.905,1.105,9.615,-69.469,-54.875,-43.031,0.062,0.125,0.032,145.875,-4.875,-6.438,-0.075,0.010,-0.090,-0.830,1.100,9.700,0.293,0.057,-0.041,-0.954
201,14.243,-0.905,1.105,9.615,-69.469,-54.875,-43.031,0.062,0.125,0.032,145.875,-4.875,-6.438,-0.075,0.010,-0.090,-0.830,1.100,9.700,0.293,0.057,-0.041,-0.954
202,14.313,-0.905,1.100,9.630,-69.469,-54.469,-42.812,0.000,0.094,-0.062,145.875,-4.875,-6.438,-0.050,-0.005,-0.125,-0.830,1.100,9.700,0.293,0.057,-0.041,-0.954
203,14.385,-0.900,1.115,9.620,-69.625,-55.000,-42.375,-0.062,0.125,-0.156,145.875,-4.875,-6.438,-0.100,0.010,-0.095,-0.830,1.100,9.700,0.293,0.057,-0.041,-0.954
204,14.456,-0.905,1.085,9.630,-69.812,-55.219,-42.375,0.000,-0.250,0.032,145.875,-4.875,-6.438,-0.115,0.000,-0.060,-0.830,1.100,9.700,0.293,0.057,-0.041,-0.954
205,14.527,-0.925,1.090,9.625,-69.250,-54.875,-42.406,-0.063,0.218,0.000,145.875,-4.875,-6.438,-0.090,-0.005,-0.070,-0.830,1.100,9.700,0.293,0.057,-0.041,-0.954
206,14.598,-0.925,1.110,9.615,-69.812,-54.875,-42.625,-0.094,0.157,-0.032,145.875,-4.875,-6.438,-0.095,0.020,-0.075,-0.830,1.100,9.700,0.293,0.057,-0.041,-0.954
207,14.669,-0.920,1.090,9.620,-70.031,-55.094,-42.438,-0.031,-0.250,0.093,145.875,-4.875,-6.438,-0.075,0.005,-0.105,-0.830,1.100,9.700,0.293,0.057,-0.041,-0.954
207,14.669,-0.920,1.090,9.620,-70.031,-55.094,-42.438,-0.031,-0.250,0.093,145.875,-4.875,-6.438,-0.075,0.005,-0.105,-0.830,1.100,9.700,0.293,0.057,-0.041,-0.954
208,14.743,-0.910,1.105,9.600,-69.688,-55.094,-42.438,-0.093,-0.188,0.125,145.875,-4.875,-6.438,-0.075,0.005,-0.100,-0.830,1.100,9.700,0.293,0.057,-0.041,-0.954
209,14.813,-0.915,1.110,9.530,-69.469,-54.688,-42.625,-0.093,0.312,0.062,145.875,-4.875,-6.438,-0.085,0.010,-0.170,-0.830,1.100,9.700,0.293,0.057,-0.041,-0.954
210,14.885,-0.925,1.100,9.540,-69.469,-54.875,-42.000,-0.062,0.344,0.062,145.875,-4.875,-6.438,-0.045,-0.010,-0.250,-0.830,1.100,9.700,0.293,0.057,-0.041,-0.954
211,14.957,-0.920,1.120,9.600,-70.031,-55.062,-42.156,-0.031,0.032,0.000,145.875,-4.875,-6.438,-0.100,0.005,-0.110,-0.830,1.100,9.700,0.293,0.057,-0.041,-0.954
212,15.028,-0.930,1.105,9.635,-70.031,-54.875,-42.781,0.062,0.125,0.000,145.875,-4.875,-6.438,-0.095,0.005,-0.115,-0.830,1.100,9.700,0.293,0.057,-0.041,-0.954
212,15.028,-0.930,1.105,9.635,-70.031,-54.875,-42.781,0.062,0.125,0.000,145.875,-4.875,-6.438,-0.095,0.005,-0.115,-0.830,1.100,9.700,0.293,0.057,-0.041,-0.954
213,15.100,-0.930,1.100,9.645,-69.281,-55.094,-43.250,0.062,0.218,0.032,145.875,-4.875,-6.438,-0.100,0.010,-0.055,-0.830,1.100,9.700,0.293,0.057,-0.041,-0.954
214,15.173,-0.860,1.095,9.480,-69.281,-55.281,-42.688,-0.031,-0.032,-0.062,145.875,-4.875,-6.438,-0.095,0.000,-0.090,-0.830,1.100,9.700,0.293,0.057,-0.041,-0.954
215,15.244,-0.935,1.095,9.615,-70.031,-55.281,-42.468,-0.031,-0.125,0.000,145.875,-4.875,-6.438,-0.100,-0.010,-0.090,-0.830,1.100,9.700,0.293,0.057,-0.041,-0.954
216,15.314,-0.915,1.090,9.645,-70.031,-55.281,-43.281,0.000,0.157,0.031,145.875,-4.875,-6.438,-0.080,-0.010,-0.060,-0.830,1.100,9.700,0.293,0.057,-0.041,-0.954
217,15.385,-0.905,1.085,9.645,-69.688,-54.875,-42.875,0.000,-0.062,0.094,145.875,-4.875,-6.438,-0.075,-0.010,-0.060,-0.830,1.100,9.700,0.293,0.057,-0.041,-0.954
218,15.456,-0.910,1.105,9.660,-69.875,-54.875,-42.406,0.031,-0.094,0.063,145.875,-4.875,-6.438,-0.080,0.005,-0.045,-0.830,1.100,9.700,0.293,0.057,-0.041,-0.954
218,15.456,-0.910,1.105,9.660,-69.875,-54.875,-42.406,0.031,-0.094,0.063,145.875,-4.875,-6.438,-0.080,0.005,-0.045,-0.830,1.100,9.700,0.293,0.057,-0.041,-0.954
219,15.527,-0.925,1.115,9.670,-69.656,-55.281,-42.562,0.093,-0.375,0.032,145.875,-4.875,-6.438,-0.055,0.010,-0.070,-0.830,1.100,9.700,0.293,0.057,-0.041,-0.954
220,15.599,-0.925,1.105,9.650,-69.812,-55.625,-42.781,0.062,-0.281,0.032,145.875,-4.875,-6.438,-0.070,0.005,-0.070,-0.830,1.100,9.700,0.293,0.057,-0.041,-0.954
221,15.671,-0.845,1.100,9.540,-70.219,-55.406,-43.250,0.000,0.000,0.000,145.875,-4.875,-6.438,-0.085,-0.005,-0.055,-0.830,1.100,9.700,0.293,0.057,-0.041,-0.954
222,15.742,-0.915,1.125,9.650,-70.062,-54.875,-42.875,0.000,-0.188,0.125,145.875,-4.875,-6.438,-0.075,-0.005,-0.070,-0.830,1.100,9.700,0.293,0.057,-0.041,-0.954
223,15.812,-0.925,1.120,9.610,-69.875,-54.875,-42.625,0.031,-0.125,0.094,145.875,-4.875,-6.438,-0.080,0.005,-0.085,-0.830,1.100,9.700,0.293,0.057,-0.041,-0.954
224,15.883,-0.930,1.105,9.615,-69.875,-54.875,-42.781,0.031,-0.093,0.031,145.875,-4.875,-6.438,-0.075,0.015,-0.075,-0.830,1.100,9.700,0.293,0.057,-0.041,-0.954
224,15.883,-0.930,1.105,9.615,-69.875,-54.875,-42.781,0.031,-0.093,0.031,145.875,-4.875,-6.438,-0.075,0.015,-0.075,-0.830,1.100,9.700,0.293,0.057,-0.041,-0.954
225,15.954,-0.930,1.105,9.605,-70.062,-54.469,-43.218,-0.094,0.094,0.031,145.875,-4.875,-6.438,-0.090,0.020,-0.060,-0.830,1.100,9.700,0.293,0.057,-0.041,-0.954
226,16.025,-0.925,1.105,9.600,-69.875,-54.875,-43.688,-0.032,-0.062,0.062,145.875,-4.875,-6.438,-0.095,0.010,-0.090,-0.830,1.100,9.700,0.293,0.057,-0.041,-0.954
227,16.097,-1.000,1.110,9.730,-69.688,-55.094,-43.500,0.032,0.032,0.125,145.875,-4.875,-6.438,-0.100,0.000,-0.095,-0.830,1.100,9.700,0.293,0.057,-0.041,-0.954
228,16.166,-0.990,1.105,9.705,-69.281,-54.688,-43.500,0.032,-0.031,0.125,145.875,-4.875,-6.438,-0.090,0.000,-0.105,-0.830,1.100,9.700,0.293,0.057,-0.041,-0.954
229,16.238,-0.970,1.100,9.705,-69.625,-55.094,-43.281,0.093,0.062,0.062,145.875,-4.875,-6.438,-0.070,0.000,-0.110,-0.830,1.100,9.700,0.293,0.057,-0.041,-0.954
230,16.309,-0.925,1.095,9.625,-70.562,-55.094,-43.062,0.031,0.125,0.062,145.875,-4.875,-6.438,-0.085,0.000,-0.075,-0.830,1.100,9.700,0.293,0.057,-0.041,-0.954
230,16.309,-0.925,1.095,9.625,-70.562,-55.094,-43.062,0.031,0.125,0.062,145.875,-4.875,-6.438,-0.085,0.000,-0.075,-0.830,1.100,9.700,0.293,0.057,-0.041,-0.954
231,16.380,-0.930,1.090,9.610,-70.219,-54.469,-43.062,0.000,0.032,0.093,145.875,-4.875,-6.438,-0.020,0.000,-0.200,-0.830,1.100,9.700,0.293,0.057,-0.041,-0.954
232,16.451,-0.935,-162.750,9.625,-69.875,-54.875,-43.468,0.000,0.125,0.062,145.875,-4.875,-6.438,-0.025,0.000,-0.190,-0.830,1.100,9.700,0.293,0.057,-0.041,-0.954
233,16.522,-0.925,-162.745,9.545,-69.875,-55.281,-43.218,0.000,0.093,0.000,145.875,-4.875,-6.438,-0.025,0.000,-0.200,-0.830,1.100,9.700,0.293,0.057,-0.041,-0.954
234,16.593,-0.920,1.090,9.515,-69.688,-54.656,-42.406,0.062,-0.062,-0.031,145.875,-4.875,-6.438,-0.080,0.005,-0.090,-0.830,1.100,9.700,0.293,0.057,-0.041,-0.954
235,16.664,-0.920,1.080,9.595,-69.688,-54.875,-42.250,0.032,-0.406,0.094,145.875,-4.875,-6.438,-0.140,0.005,0.060,-0.830,1.100,9.700,0.293,0.057,-0.041,-0.954
236,16.738,-0.910,1.085,9.595,-69.125,-55.281,-42.406,-0.062,-0.093,0.063,145.875,-4.875,-6.438,-0.070,-0.005,-0.075,-0.830,1.100,9.700,0.293,0.057,-0.041,-0.954
236,16.738,-0.910,1.085,9.595,-69.125,-55.281,-42.406,-0.062,-0.093,0.063,145.875,-4.875,-6.438,-0.070,-0.005,-0.075,-0.830,1.100,9.700,0.293,0.057,-0.041,-0.954
237,16.809,-0.925,1.110,9.620,-69.125,-54.656,-42.781,0.000,-0.157,-0.031,145.875,-4.875,-6.438,-0.085,0.010,-0.075,-0.830,1.100,9.700,0.293,0.057,-0.041,-0.954
238,16.879,-0.925,1.105,9.595,-69.875,-54.875,-42.625,0.031,0.062,0.000,145.875,-4.875,-6.438,-0.085,0.005,-0.105,-0.830,1.100,9.700,0.293,0.057,-0.041,-0.954
239,16.950,-0.930,1.100,9.565,-69.875,-55.094,-43.250,0.031,0.062,0.062,145.875,-4.875,-6.438,-0.090,-0.005,-0.135,-0.830,1.100,9.700,0.293,0.057,-0.041,-0.954
240,17.017,-0.965,1.100,9.665,-70.031,-55.094,-43.250,0.062,0.062,0.062,145.875,-4.875,-6.438,-0.090,0.005,-0.105,-0.830,1.100,9.700,0.293,0.058,-0.041,-0.954
241,17.088,-0.915,1.090,9.620,-70.031,-55.281,-43.000,-0.032,0.031,0.062,145.875,-4.875,-6.438,-0.085,0.005,-0.095,-0.830,1.100,9.700,0.293,0.058,-0.041,-0.954
242,17.158,-0.930,1.095,9.640,-69.281,-54.656,-43.406,-0.093,0.000,0.062,145.875,-4.875,-6.438,-0.090,0.010,-0.080,-0.830,-162.740,9.700,0.293,0.058,-0.041,-0.954
243,17.229,-0.920,1.080,9.625,-69.469,-55.000,-42.875,-0.031,-0.062,0.062,145.875,-4.875,-6.438,-0.080,0.010,-0.090,-0.830,-162.740,9.700,0.293,0.058,-0.041,-0.954
243,17.229,-0.920,1.080,9.625,-69.469,-55.000,-42.875,-0.031,-0.062,0.062,145.875,-4.875,-6.438,-0.080,0.010,-0.090,-0.830,-162.740,9.700,0.293,0.058,-0.041,-0.954
244,17.300,-0.925,1.090,9.650,-69.875,-55.000,-42.844,0.000,-0.188,0.093,145.875,-4.875,-6.438,-0.080,0.005,-0.085,-0.830,1.100,9.700,0.293,0.057,-0.041,-0.954
245,17.369,-0.940,1.090,9.655,-69.469,-54.656,-42.625,-0.031,0.062,0.031,145.875,-4.875,-6.438,-0.080,0.000,-0.085,-0.830,1.100,9.700,0.293,0.057,-0.041,-0.954
246,17.439,-0.900,1.090,9.580,-69.469,-55.062,-42.219,-0.093,0.062,0.031,145.875,-4.875,-6.438,-0.095,0.010,-0.080,-0.830,1.100,9.700,0.293,0.057,-0.041,-0.954
247,17.509,-0.900,1.110,9.645,-69.688,-54.875,-43.188,0.000,0.094,0.062,145.875,-4.875,-6.438,-0.070,0.010,-0.075,-0.830,1.100,9.700,0.293,0.057,-0.041,-0.954
248,17.583,-0.910,1.115,9.655,-69.875,-55.094,-42.969,0.062,0.032,0.062,145.875,-4.875,-6.438,-0.075,0.005,-0.050,-0.830,1.100,9.700,0.293,0.057,-0.041,-0.954
249,17.654,-0.915,1.120,9.600,-69.875,-55.500,-42.156,-0.031,-0.032,0.000,145.875,1019.125,-6.438,-0.075,0.015,-0.095,-0.830,1.100,9.700,0.293,0.057,-0.041,-0.954
249,17.654,-0.915,1.120,9.600,-69.875,-55.500,-42.156,-0.031,-0.032,0.000,145.875,1019.125,-6.438,-0.075,0.015,-0.095,-0.830,1.100,9.700,0.293,0.057,-0.041,-0.954
250,17.723,-0.935,1.105,9.645,-69.688,-55.500,-43.031,-0.031,0.062,-0.093,145.875,1015.125,-6.438,-0.095,0.010,-0.050,-0.830,1.100,9.700,0.293,0.057,-0.041,-0.954
251,17.793,-0.915,1.085,9.590,-69.469,-55.281,-43.250,0.000,-0.032,0.000,145.875,-8.875,-6.438,-0.075,-0.010,-0.105,-0.830,1.100,9.700,0.293,0.057,-0.041,-0.954
252,17.864,-0.920,1.095,9.600,-69.250,-54.875,-42.781,-0.031,0.000,0.062,145.875,-4.875,-6.438,-0.080,-0.010,-0.100,-0.830,1.100,9.700,0.293,0.057,-0.041,-0.954
253,17.935,-0.905,1.105,9.610,-69.656,-54.875,-42.812,0.063,0.281,0.062,145.875,-4.875,-6.438,-0.065,0.000,-0.090,-0.830,1.100,9.700,0.293,0.057,-0.041,-0.954
254,18.006,-0.925,1.105,9.600,-69.875,-55.062,-43.281,0.094,0.000,4.125,145.875,-4.875,-6.438,-0.085,0.000,-0.095,-0.830,1.100,9.700,0.293,0.057,-0.041,-0.954
255,18.075,-0.930,1.100,9.585,-69.688,-55.062,-42.500,0.000,0.062,4.062,145.875,-4.875,-6.438,-0.090,0.000,-0.115,-0.830,1.100,9.700,0.293,0.057,-0.041,-0.954
255,18.075,-0.930,1.100,9.585,-69.688,-55.062,-42.500,0.000,0.062,4.062,145.875,-4.875,-6.438,-0.090,0.000,-0.115,-0.830,1.100,9.700,0.293,0.057,-0.041,-0.954
256,18.146,-0.930,1.105,9.605,-69.688,-55.062,-42.500,-0.031,0.000,0.062,145.875,-4.875,-6.438,-0.090,0.005,-0.100,-0.830,1.100,9.700,0.293,0.057,-0.041,-0.954
257,18.217,-0.910,1.105,9.610,-69.875,-55.281,-43.281,-0.062,-0.125,0.093,145.875,-4.875,-6.438,-0.075,0.005,-0.095,-0.830,1.100,9.700,0.293,0.057,-0.041,-0.954
258,18.288,-0.915,1.090,9.615,-70.219,-55.094,-42.406,-0.031,-0.125,0.000,145.875,-4.875,-6.438,-0.040,0.000,-0.140,-0.830,1.100,9.700,0.293,0.057,-0.041,-0.954
259,18.359,-0.935,1.095,9.630,-70.031,-55.094,-42.156,-0.031,0.032,-0.093,145.875,-4.875,-6.438,-0.055,0.000,-0.125,-0.830,1.100,9.700,0.293,0.057,-0.041,-0.954
260,18.428,-0.920,1.110,9.635,-69.875,-55.094,-42.562,-0.062,-0.062,-0.093,145.875,-4.875,-6.438,-0.075,0.000,-0.095,-0.830,1.100,9.700,0.293,0.057,-0.041,-0.954
261,18.499,-0.910,1.110,9.620,-69.875,-54.875,-42.812,-0.031,-0.094,-0.093,145.875,-4.875,-6.438,-0.065,0.000,-0.090,-0.830,1.100,9.700,0.293,0.057,-0.041,-0.954
261,18.499,-0.910,1.110,9.620,-69.875,-54.875,-42.812,-0.031,-0.094,-0.093,145.875,-4.875,-6.438,-0.065,0.000,-0.090,-0.830,1.100,9.700,0.293,0.057,-0.041,-0.954
262,18.570,-0.910,1.120,9.620,-69.875,-55.062,-43.062,-0.031,0.000,0.000,145.875,-4.875,-6.438,-0.055,0.000,-0.085,-0.830,1.100,9.700,0.293,0.057,-0.041,-0.954
263,18.641,-0.925,1.110,9.655,-69.656,-55.281,-42.468,-0.031,-0.031,0.093,145.875,-4.875,-6.438,-0.055,0.000,-0.100,-0.830,1.100,9.700,0.293,0.057,-0.041,-0.954
264,18.711,-0.925,1.095,9.610,-69.656,-54.875,-42.688,0.125,0.125,0.093,145.875,-4.875,-6.438,-0.080,0.010,-0.085,-0.830,1.100,9.700,0.293,0.057,-0.041,-0.954
265,18.781,-0.920,1.120,9.750,-69.875,-54.656,-43.031,0.094,0.094,0.032,145.875,-4.875,-6.438,-0.075,0.005,-0.145,-0.830,1.100,9.700,0.293,0.057,-0.041,-0.954
266,18.851,-0.875,1.125,9.700,-69.469,-55.062,-42.406,-0.093,0.469,-0.125,145.875,-4.875,-6.438,-0.075,-0.005,-0.100,-0.835,1.100,9.700,0.293,0.058,-0.041,-0.954
267,18.922,-0.910,1.120,9.595,-69.469,-55.281,-42.656,-0.032,0.125,-0.032,145.875,-4.875,-6.438,-0.075,0.000,-0.075,-0.840,1.100,9.700,0.293,0.058,-0.041,-0.954
267,18.922,-0.910,1.120,9.595,-69.469,-55.281,-42.656,-0.032,0.125,-0.032,145.875,-4.875,-6.438,-0.075,0.000,-0.075,-0.840,1.100,9.700,0.293,0.058,-0.041,-0.954
268,18.992,-0.930,1.110,9.630,-69.688,-55.281,-42.656,0.031,0.219,0.032,145.875,-4.875,-6.438,-0.065,-0.005,-0.105,-0.840,1.100,9.700,0.293,0.058,-0.041,-0.954
269,19.062,-0.935,1.085,9.625,-69.688,-54.875,-42.469,0.000,0.219,-0.031,145.875,-4.875,-6.438,-0.085,-0.010,-0.075,-0.840,1.100,9.700,0.293,0.058,-0.041,-0.954
270,19.133,-0.935,1.070,9.620,-69.469,-54.469,-42.625,-0.031,0.062,0.031,145.875,-4.875,-6.438,-0.080,-0.010,-0.130,-0.840,1.100,9.700,0.293,0.058,-0.041,-0.954
271,19.203,-0.915,1.085,9.615,-69.250,-54.250,-42.156,0.000,0.188,0.093,145.875,-4.875,-6.438,-0.080,-0.025,-0.095,-0.840,-162.740,9.700,0.293,0.058,-0.041,-0.954
272,19.273,-0.910,1.110,9.630,-69.469,-54.469,-42.406,0.031,-0.031,0.157,145.875,-4.875,-6.438,-0.060,-0.015,-0.085,-0.840,-162.740,9.700,0.293,0.058,-0.041,-0.954
273,19.344,-0.890,1.125,9.620,-69.875,-54.688,-43.468,-0.031,-0.031,0.094,145.875,-4.875,-6.438,-0.060,0.020,-0.040,-0.840,1.100,9.700,0.293,0.058,-0.041,-0.954
273,19.344,-0.890,1.125,9.620,-69.875,-54.688,-43.468,-0.031,-0.031,0.094,145.875,-4.875,-6.438,-0.060,0.020,-0.040,-0.840,1.100,9.700,0.293,0.058,-0.041,-0.954
274,19.414,-0.920,1.115,9.650,-70.219,-54.875,-43.468,0.000,0.031,0.062,145.875,-4.875,-6.438,-0.070,0.020,-0.050,-0.840,1.100,9.700,0.293,0.058,-0.041,-0.954
275,19.483,-0.940,1.090,9.625,-69.812,-55.062,-42.812,0.000,0.000,0.062,145.875,-4.875,-6.438,-0.100,0.000,-0.075,-0.840,1.100,9.700,0.293,0.058,-0.041,-0.954
276,19.554,-0.960,1.090,9.630,-69.250,-55.062,-43.031,-0.062,0.188,-0.031,145.875,-4.906,-6.438,-0.105,-0.005,-0.100,-0.840,1.100,9.700,0.293,0.058,-0.041,-0.954
277,19.625,-0.930,1.105,9.630,-69.812,-55.062,-43.031,-0.031,0.281,0.032,145.875,-4.938,-6.438,-0.090,0.000,-0.080,-0.840,1.100,9.700,0.293,0.058,-0.041,-0.954
278,19.698,-0.895,1.105,9.630,-69.812,-54.656,-43.031,0.031,-0.157,0.157,145.875,-4.938,-6.438,-0.060,0.010,-0.100,-0.840,1.100,9.700,0.293,0.058,-0.041,-0.954
279,19.768,-0.905,1.095,9.625,-69.812,-54.469,-43.281,0.031,0.031,0.125,145.875,-4.938,-6.438,-0.060,0.010,-0.085,-0.840,1.100,9.700,0.293,0.058,-0.041,-0.954
279,19.768,-0.905,1.095,9.625,-69.812,-54.469,-43.281,0.031,0.031,0.125,145.875,-4.938,-6.438,-0.060,0.010,-0.085,-0.840,1.100,9.700,0.293,0.058,-0.041,-0.954
280,19.838,-0.925,1.090,9.640,-70.219,-54.469,-43.062,0.062,0.094,0.093,145.875,-4.938,-6.438,-0.065,0.000,-0.085,-0.840,1.100,9.700,0.293,0.058,-0.041,-0.954
281,19.909,-0.930,1.080,9.615,-69.875,-54.656,-42.812,0.062,0.032,0.062,145.875,-4.938,-6.438,-0.075,0.000,-0.090,-0.840,1.100,9.700,0.293,0.058,-0.041,-0.954
282,19.978,-0.935,1.095,9.605,-70.031,-54.875,-42.406,0.031,-0.032,0.000,145.875,-4.938,-6.438,-0.070,0.000,-0.085,-0.840,1.100,9.700,0.293,0.058,-0.041,-0.954
283,20.048,-0.915,1.115,9.590,-70.031,-54.875,-42.062,0.000,0.031,-0.062,145.875,-4.938,-6.438,-0.075,0.010,-0.065,-0.840,1.100,9.700,0.293,0.058,-0.041,-0.954
284,20.118,-0.900,1.110,9.595,-69.875,-55.062,-42.875,0.000,-0.062,-0.032,145.875,-4.938,-6.438,-0.070,0.015,-0.075,-0.840,1.100,9.700,0.293,0.058,-0.041,-0.954
285,20.187,-0.920,1.100,9.625,-69.656,-55.281,-42.875,0.093,-0.188,0.093,145.875,-4.938,-6.438,-0.080,0.005,-0.095,-0.840,1.100,9.700,0.293,0.058,-0.041,-0.954
286,20.257,-0.925,1.110,9.610,-69.469,-55.500,-42.688,0.062,0.000,0.093,145.875,-4.938,-6.438,-0.065,0.025,-0.100,-0.840,1.100,9.700,0.293,0.058,-0.041,-0.954
286,20.257,-0.925,1.110,9.610,-69.469,-55.500,-42.688,0.062,0.000,0.093,145.875,-4.938,-6.438,-0.065,0.025,-0.100,-0.840,1.100,9.700,0.293,0.058,-0.041,-0.954
287,20.328,-0.900,1.095,9.620,-69.875,-55.500,-42.875,0.031,-0.062,0.000,145.875,-4.938,-6.438,-0.065,0.025,-0.050,-0.840,1.100,9.700,0.293,0.058,-0.041,-0.954
288,20.398,-0.935,1.020,9.625,-70.062,-55.281,-42.656,-0.094,0.125,0.000,145.875,-4.938,-6.438,-0.105,-0.045,0.035,-0.840,1.100,9.700,0.293,0.058,-0.041,-0.954
289,20.468,-0.955,1.080,9.710,-69.875,-54.875,-42.812,-0.250,0.500,-0.063,145.875,-4.938,-6.438,-0.045,-0.100,-0.085,-0.840,1.100,9.700,0.293,0.058,-0.041,-0.954
290,20.537,-0.930,1.175,9.760,-70.219,-55.094,-42.406,-0.062,0.031,-0.032,145.875,-4.938,-6.438,-0.035,-0.015,-0.165,-0.840,1.100,9.700,0.293,0.058,-0.041,-0.954
291,20.608,-0.925,1.105,9.630,-70.219,-55.500,-42.250,0.125,-0.750,0.157,145.875,-4.906,-6.438,-0.045,0.030,-0.100,-0.840,1.100,9.700,0.293,0.058,-0.041,-0.954
292,20.678,-0.960,1.090,9.580,-69.688,-55.094,-42.656,-0.032,-0.219,0.032,145.875,-4.906,-6.438,-0.035,-0.040,-0.055,-0.840,1.100,9.060,0.293,0.058,-0.041,-0.954
292,20.678,-0.960,1.090,9.580,-69.688,-55.094,-42.656,-0.032,-0.219,0.032,145.875,-4.906,-6.438,-0.035,-0.040,-0.055,-0.840,1.100,9.060,0.293,0.058,-0.041,-0.954
293,20.749,-0.980,1.150,9.585,-69.469,-54.469,-42.812,0.000,0.281,-0.032,145.875,-4.938,-6.438,-0.075,-0.010,-0.085,-0.840,1.100,9.060,0.293,0.058,-0.041,-0.954
294,20.819,-0.955,1.130,9.585,-69.250,-54.875,-42.375,0.063,0.156,0.000,145.875,-4.938,-6.438,-0.090,0.015,-0.095,-0.840,1.100,9.700,0.293,0.058,-0.041,-0.954
295,20.888,-0.950,1.125,9.630,-69.469,-55.094,-42.844,-0.031,0.375,0.000,145.875,-4.938,-6.438,-0.095,0.020,-0.105,-0.840,1.100,9.700,0.293,0.058,-0.041,-0.954
296,20.959,-0.930,1.135,9.640,-69.688,-55.094,-43.031,0.031,0.156,0.000,145.875,-4.938,-6.438,-0.115,0.050,-0.095,-0.840,1.100,9.700,0.293,0.058,-0.041,-0.954
297,21.030,-0.895,1.100,9.615,-69.469,-55.281,-42.156,0.093,-0.125,-0.062,145.875,-4.938,-6.438,-0.090,0.050,-0.085,-0.840,1.100,9.700,0.293,0.058,-0.041,-0.954
298,21.100,-0.845,1.105,9.475,-69.250,-55.062,-42.625,0.062,0.032,-0.062,145.875,-4.938,-6.438,-0.090,0.065,-0.090,-0.840,1.100,9.700,0.293,0.058,-0.041,-0.954
298,21.100,-0.845,1.105,9.475,-69.250,-55.062,-42.625,0.062,0.032,-0.062,145.875,-4.938,-6.438,-0.090,0.065,-0.090,-0.840,1.100,9.700,0.293,0.058,-0.041,-0.954
299,21.170,-0.910,1.080,9.605,-69.469,-54.875,-43.031,-0.031,0.250,-0.062,145.875,-4.938,-6.438,-0.090,0.025,-0.090,-0.840,1.100,9.700,0.293,0.058,-0.041,-0.954
300,21.240,-0.890,1.060,9.650,-69.875,-54.875,-43.156,0.000,0.062,-0.062,145.875,-4.938,-6.438,-0.070,-0.020,-0.060,-0.840,1.100,9.700,0.293,0.058,-0.041,-0.954
301,21.311,-0.895,1.105,9.635,-70.062,-55.062,-43.000,0.031,-0.188,-0.031,145.875,-4.938,-6.438,-0.060,0.015,-0.065,-0.840,1.100,9.700,0.293,0.058,-0.041,-0.954
302,21.381,-0.885,1.105,9.615,-70.062,-54.875,-42.406,0.000,-0.062,0.031,145.875,-4.938,-6.438,-0.055,0.020,-0.075,-0.840,1.100,9.700,0.293,0.058,-0.041,-0.954
303,21.453,-0.875,1.065,9.635,-70.219,-55.094,-42.218,-0.094,0.219,0.031,145.875,-4.938,-6.438,-0.040,-0.040,-0.090,-0.840,1.100,9.700,0.293,0.058,-0.041,-0.954
304,21.523,-0.890,1.100,9.655,-70.219,-55.094,-42.688,-0.157,0.063,0.031,145.875,-4.938,-6.438,-0.060,-0.035,-0.080,-0.840,1.100,9.700,0.293,0.058,-0.041,-0.954
304,21.523,-0.890,1.100,9.655,-70.219,-55.094,-42.688,-0.157,0.063,0.031,145.875,-4.938,-6.438,-0.060,-0.035,-0.080,-0.840,1.100,9.700,0.293,0.058,-0.041,-0.954
305,21.592,-0.905,1.125,9.630,-69.875,-54.469,-42.500,-0.032,-0.093,-0.032,145.875,-4.938,-6.438,-0.080,0.000,-0.070,-0.840,1.100,9.700,0.293,0.058,-0.041,-0.954
306,21.667,-0.920,1.095,9.605,-69.469,-54.469,-42.031,0.000,-0.032,-0.062,145.875,-4.938,-6.438,-0.080,-0.005,-0.065,-0.840,1.100,9.700,0.293,0.058,-0.041,-0.954
307,21.736,-0.945,1.115,9.610,-69.250,-55.438,-42.218,-0.062,-0.094,0.000,145.875,-4.938,-6.438,-0.090,0.000,-0.075,-0.840,1.100,9.700,0.293,0.058,-0.041,-0.954
308,21.808,-0.960,1.135,9.600,-69.062,-55.625,-42.218,-0.125,-0.031,-0.031,145.875,-4.938,-6.438,-0.110,0.010,-0.085,-0.840,1.100,9.700,0.293,0.058,-0.041,-0.954
309,21.879,-0.900,1.130,9.510,-69.281,-55.062,-42.812,-0.094,-0.031,-0.031,145.875,-4.938,-6.438,-0.100,0.020,-0.085,-0.840,1.100,9.700,0.293,0.058,-0.041,-0.954
310,21.950,-0.940,1.130,9.615,-69.688,-55.062,-42.656,-0.031,-0.062,0.031,145.875,-4.938,-6.438,-0.095,0.025,-0.080,-0.840,1.100,9.700,0.293,0.058,-0.041,-0.954
310,21.950,-0.940,1.130,9.615,-69.688,-55.062,-42.656,-0.031,-0.062,0.031,145.875,-4.938,-6.438,-0.095,0.025,-0.080,-0.840,1.100,9.700,0.293,0.058,-0.041,-0.954
311,22.022,-0.925,1.120,9.610,-69.469,-55.062,-42.406,-0.031,-0.093,0.031,145.875,-4.938,-6.438,-0.085,0.015,-0.085,-0.840,1.100,9.700,0.293,0.058,-0.041,-0.954
312,22.091,-0.905,1.100,9.635,-69.469,-55.281,-42.406,-0.031,0.094,-0.031,145.875,-4.938,-6.438,-0.060,0.000,-0.060,-0.840,1.100,9.700,0.293,0.058,-0.041,-0.954
313,22.164,-0.885,1.100,9.615,-69.469,-55.281,-43.000,0.000,-0.031,0.000,145.875,-4.938,-6.438,-0.095,0.000,0.000,-0.840,1.100,9.700,0.293,0.058,-0.041,-0.954
314,22.235,-0.895,1.110,9.640,-69.656,-54.656,-43.625,0.062,-0.062,0.000,145.875,-4.938,-6.438,-0.075,0.000,-0.120,-0.840,1.100,9.700,0.293,0.058,-0.041,-0.954
315,22.307,-0.910,1.100,9.645,-69.469,-54.656,-43.281,0.031,0.032,0.063,145.875,-4.938,-6.438,-0.075,0.000,-0.130,-0.840,1.100,9.700,0.293,0.058,-0.041,-0.954
316,22.379,-0.920,1.055,9.630,-69.281,-55.406,-43.281,-0.031,0.125,0.032,145.875,-4.938,-6.438,-0.070,-0.015,-0.075,-0.840,1.100,9.700,0.293,0.058,-0.041,-0.954
316,22.379,-0.920,1.055,9.630,-69.281,-55.406,-43.281,-0.031,0.125,0.032,145.875,-4.938,-6.438,-0.070,-0.015,-0.075,-0.840,1.100,9.700,0.293,0.058,-0.041,-0.954
317,22.450,-0.935,1.060,9.645,-69.469,-55.406,-42.625,-0.062,0.093,-0.032,145.875,-4.938,-6.438,-0.075,-0.010,-0.080,-0.840,1.100,9.700,0.293,0.058,-0.041,-0.954
318,22.522,-0.900,1.095,9.565,-69.656,-55.281,-42.000,0.032,0.125,-0.032,145.875,-4.938,-6.438,-0.085,0.005,-0.080,-0.840,1.100,9.700,0.293,0.058,-0.041,-0.954
319,22.592,-0.930,1.095,9.625,-70.062,-55.281,-42.656,0.093,0.094,-0.062,145.875,-4.938,-6.438,-0.080,0.000,-0.070,-0.840,1.100,9.700,0.293,0.058,-0.041,-0.954
320,22.663,-0.930,1.105,9.635,-69.656,-55.062,-42.812,0.031,0.094,0.031,145.875,-4.938,-6.438,-0.085,0.010,-0.060,-0.840,1.100,9.700,0.293,0.058,-0.041,-0.954
321,22.736,-0.920,1.110,9.625,-69.656,-55.281,-42.812,0.031,0.063,0.093,145.875,-4.938,-6.438,-0.035,0.010,-0.120,-0.840,1.100,9.700,0.293,0.058,-0.041,-0.954
321,22.736,-0.920,1.110,9.625,-69.656,-55.281,-42.812,0.031,0.063,0.093,145.875,-4.938,-6.438,-0.035,0.010,-0.120,-0.840,1.100,9.700,0.293,0.058,-0.041,-0.954
322,22.809,-0.915,1.100,9.625,-70.062,-55.094,-43.062,0.062,-0.156,0.093,145.875,-4.938,-6.438,-0.060,0.005,-0.090,-0.840,1.100,9.700,0.293,0.058,-0.041,-0.954
323,22.880,-0.915,1.100,9.615,-69.656,-54.875,-43.281,0.031,0.125,0.062,145.875,-4.938,-6.438,-0.065,0.000,-0.075,-0.840,1.100,9.700,0.293,0.058,-0.041,-0.954
324,22.953,-0.950,1.105,9.645,-69.812,-54.656,-42.688,0.000,0.031,0.062,145.875,-4.938,-6.438,-0.070,-0.005,-0.080,-0.840,1.100,9.700,0.293,0.058,-0.041,-0.954
325,23.025,-0.915,1.100,9.605,-70.031,-54.469,-42.812,-0.031,-0.032,0.000,145.875,-4.938,-6.438,-0.070,-0.005,-0.090,-0.840,1.100,9.700,0.293,0.058,-0.041,-0.954
326,23.095,-0.915,1.095,9.605,-69.469,-54.469,-42.812,0.000,0.093,0.032,145.875,-4.938,-6.438,-0.065,-0.005,-0.090,-0.840,1.100,9.700,0.293,0.058,-0.041,-0.954
327,23.167,-0.930,1.100,9.600,-69.469,-54.875,-42.468,0.031,0.187,0.000,145.875,-4.938,-6.438,-0.080,0.005,-0.090,-0.840,1.100,9.700,0.293,0.058,-0.041,-0.954
327,23.167,-0.930,1.100,9.600,-69.469,-54.875,-42.468,0.031,0.187,0.000,145.875,-4.938,-6.438,-0.080,0.005,-0.090,-0.840,1.100,9.700,0.293,0.058,-0.041,-0.954
328,23.238,-0.925,1.095,9.610,-69.875,-55.281,-43.656,0.031,0.187,0.000,145.875,-4.938,-6.438,-0.085,0.005,-0.075,-0.840,1.100,9.700,0.293,0.058,-0.041,-0.954
329,23.312,-0.905,1.090,9.620,-70.062,-54.875,-43.406,0.000,0.281,0.062,145.875,-4.938,-6.438,-0.065,0.000,-0.085,-0.840,1.100,9.700,0.293,0.058,-0.041,-0.954
330,23.384,-0.930,1.115,9.630,-69.875,-55.219,-42.562,0.063,0.125,0.000,145.875,-4.938,-6.438,-0.080,0.015,-0.085,-0.840,1.100,9.700,0.293,0.058,-0.041,-0.954
331,23.456,-0.955,1.095,9.635,-69.281,-55.406,-42.562,0.000,0.125,-0.125,145.875,-4.938,-6.438,-0.105,-0.005,-0.070,-0.840,1.100,9.700,0.293,0.058,-0.041,-0.954
332,23.527,-0.950,1.090,9.630,-69.062,-55.062,-42.812,-0.094,0.188,-0.125,145.875,-4.938,-6.438,-0.100,-0.010,-0.075,-0.840,1.100,9.700,0.293,0.058,-0.041,-0.954
332,23.527,-0.950,1.090,9.630,-69.062,-55.062,-42.812,-0.094,0.188,-0.125,145.875,-4.938,-6.438,-0.100,-0.010,-0.075,-0.840,1.100,9.700,0.293,0.058,-0.041,-0.954
333,23.596,-0.940,1.110,9.620,-69.656,-55.062,-43.406,-0.031,0.157,-0.094,145.875,-4.938,-6.438,-0.090,0.010,-0.085,-0.840,1.100,9.700,0.293,0.058,-0.041,-0.954
334,23.669,-0.920,1.090,9.625,-69.875,-55.062,-43.406,-0.125,-0.125,-0.032,145.875,-4.938,-6.438,-0.035,-0.015,-0.130,-0.840,1.100,9.700,0.293,0.058,-0.041,-0.954
335,23.740,-0.920,1.090,9.615,-70.031,-55.062,-42.812,-0.032,-0.156,0.000,145.875,-4.938,-6.438,-0.040,-0.010,-0.080,-0.840,1.100,9.700,0.293,0.058,-0.041,-0.954
336,23.811,-0.915,1.090,9.585,-70.031,-55.281,-43.218,0.093,-0.094,-4.062,145.875,-4.938,-6.438,-0.040,0.000,-0.085,-0.840,1.100,9.700,0.293,0.058,-0.041,-0.954
337,23.882,-0.885,1.090,9.525,-69.875,-55.281,-43.688,0.000,-0.281,-4.031,145.875,-4.938,-6.438,-0.050,-0.005,-0.075,-0.840,1.100,9.700,0.293,0.058,-0.041,-0.954
338,23.953,-0.900,1.120,9.555,-70.219,-55.062,-43.281,-0.031,-0.094,-0.062,145.875,-4.938,-6.438,-0.065,0.005,-0.120,-0.840,1.100,9.700,0.293,0.058,-0.041,-0.954
338,23.953,-0.900,1.120,9.555,-70.219,-55.062,-43.281,-0.031,-0.094,-0.062,145.875,-4.938,-6.438,-0.065,0.005,-0.120,-0.840,1.100,9.700,0.293,0.058,-0.041,-0.954
339,24.024,-0.920,1.115,9.635,-69.812,-54.656,-42.656,0.031,0.000,-0.031,145.875,-4.938,-6.438,-0.085,0.000,-0.130,-0.840,1.100,9.700,0.293,0.058,-0.041,-0.954
340,24.094,-0.915,1.080,9.625,-69.656,-54.656,-42.406,0.000,0.219,-0.062,145.875,-4.906,-6.438,-0.095,-0.025,-0.080,-0.840,-162.740,9.700,0.293,0.058,-0.041,-0.954
341,24.166,-0.935,1.110,9.595,-70.219,-55.062,-43.406,-0.031,0.250,-0.093,145.875,-4.875,-6.438,-0.125,0.015,-0.115,-0.840,-162.740,9.700,0.293,0.058,-0.041,-0.954
342,24.237,-0.940,1.090,9.625,-69.812,-54.875,-43.656,0.031,0.375,-0.062,145.875,-4.875,-6.438,-0.135,0.000,-0.115,-0.840,1.100,9.700,0.293,0.058,-0.041,-0.954
343,24.308,-0.970,1.090,9.690,-69.469,-55.094,-43.468,0.031,0.094,0.000,145.875,-4.875,-6.438,-0.115,-0.015,-0.085,-0.840,1.100,9.700,0.293,0.058,-0.041,-0.954
344,24.380,-0.935,1.115,9.615,-69.875,-55.094,-43.468,0.031,-0.125,0.031,145.875,-4.875,-6.438,-0.095,0.020,-0.080,-0.840,1.100,9.700,0.293,0.058,-0.041,-0.954
344,24.380,-0.935,1.115,9.615,-69.875,-55.094,-43.468,0.031,-0.125,0.031,145.875,-4.875,-6.438,-0.095,0.020,-0.080,-0.840,1.100,9.700,0.293,0.058,-0.041,-0.954
345,24.449,-0.930,1.075,9.665,-70.219,-55.094,-42.406,0.000,-0.125,0.031,145.875,-4.875,-6.438,-0.090,-0.015,-0.035,-0.840,1.100,9.700,0.293,0.058,-0.041,-0.954
346,24.521,-0.910,1.075,9.660,-70.031,-55.500,-42.406,-0.062,-0.187,-0.032,145.875,-4.875,-6.438,-0.070,-0.015,-0.040,-0.840,1.100,9.700,0.293,0.058,-0.041,-0.954
347,24.592,-0.915,1.090,9.650,-69.688,-55.281,-42.656,0.063,-0.375,-0.062,145.875,-4.875,-6.438,-0.015,0.005,-0.105,-0.840,1.100,9.700,0.293,0.058,-0.041,-0.954
348,24.664,-0.895,1.070,9.625,-69.688,-54.656,-42.656,0.157,-0.531,0.062,145.875,-4.875,-6.438,-0.060,0.000,-0.035,-0.840,1.100,9.700,0.293,0.058,-0.041,-0.954
349,24.739,-0.895,1.065,9.615,-70.219,-54.250,-42.812,0.032,-0.250,0.062,145.875,-4.875,-6.438,-0.065,-0.065,-0.025,-0.835,1.100,9.700,0.293,0.058,-0.041,-0.954
349,24.739,-0.895,1.065,9.615,-70.219,-54.250,-42.812,0.032,-0.250,0.062,145.875,-4.875,-6.438,-0.065,-0.065,-0.025,-0.835,1.100,9.700,0.293,0.058,-0.041,-0.954
350,24.811,-0.985,1.110,9.690,-70.406,-54.469,-42.812,-0.093,-0.093,-0.062,145.875,-4.875,-6.438,-0.090,-0.045,-0.050,-0.830,1.100,9.700,0.293,0.058,-0.041,-0.954
351,24.882,-0.920,1.120,9.620,-70.062,-54.875,-43.062,-0.093,-0.125,-0.093,145.875,-4.875,-6.438,-0.085,0.015,-0.080,-0.830,1.100,9.700,0.293,0.058,-0.041,-0.954
352,24.952,-0.915,1.085,9.630,-69.656,-55.062,-42.625,-0.062,-0.094,-0.031,145.875,-4.875,-6.438,-0.080,-0.010,-0.075,-0.830,1.100,9.700,0.293,0.058,-0.041,-0.954
353,25.023,-0.935,1.105,9.630,-69.469,-54.875,-42.375,0.000,0.031,0.000,145.875,-4.875,-6.438,-0.095,0.010,-0.075,-0.830,1.100,9.700,0.293,0.057,-0.041,-0.954
354,25.095,-0.960,1.120,9.620,-69.688,-54.875,-42.562,0.062,0.125,-0.094,145.875,-4.875,-6.438,-0.050,0.020,-0.160,-0.830,1.100,9.700,0.293,0.057,-0.041,-0.954
355,25.166,-0.985,1.115,9.610,-69.469,-54.875,-43.156,0.031,-0.031,-0.094,145.875,-4.875,-6.438,-0.125,0.000,-0.080,-0.830,1.100,9.700,0.293,0.057,-0.041,-0.954
356,25.238,-0.945,1.115,9.595,-69.250,-54.875,-43.750,0.062,-0.125,0.000,145.875,-4.844,-6.438,-0.110,0.000,-0.150,-0.830,1.100,9.700,0.293,0.057,-0.041,-0.954
356,25.238,-0.945,1.115,9.595,-69.250,-54.875,-43.750,0.062,-0.125,0.000,145.875,-4.844,-6.438,-0.110,0.000,-0.150,-0.830,1.100,9.700,0.293,0.057,-0.041,-0.954
357,25.307,-0.935,1.110,9.640,-69.062,-55.281,-42.750,0.093,0.406,-0.031,145.875,-4.812,-6.438,-0.095,0.005,-0.095,-0.830,1.100,9.700,0.293,0.057,-0.041,-0.954
358,25.379,-0.915,1.105,9.630,-69.281,-55.281,-42.969,0.062,0.469,-0.062,145.875,-4.812,-6.438,-0.145,0.015,0.105,-0.830,1.100,9.700,0.293,0.057,-0.041,-0.954
359,25.449,-0.895,1.095,9.685,-70.219,-55.281,-43.375,0.000,0.093,-0.062,145.875,-4.844,-6.438,-0.045,-0.045,-0.120,-0.830,1.100,9.700,0.293,0.057,-0.041,-0.954
360,25.521,-0.900,1.120,9.695,-70.750,-55.281,-42.812,-0.031,0.031,-0.031,145.875,-4.875,-6.438,-0.050,-0.005,-0.175,-0.830,1.100,9.700,0.293,0.057,-0.041,-0.954
361,25.592,-0.915,1.075,9.675,-70.000,-55.062,-43.281,0.031,0.281,-0.094,145.875,-4.875,-6.438,-0.075,0.010,-0.105,-0.830,1.100,9.700,0.293,0.057,-0.041,-0.954
361,25.592,-0.915,1.075,9.675,-70.000,-55.062,-43.281,0.031,0.281,-0.094,145.875,-4.875,-6.438,-0.075,0.010,-0.105,-0.830,1.100,9.700,0.293,0.057,-0.041,-0.954
362,25.664,-0.930,1.055,9.715,-69.469,-55.062,-43.250,-0.063,0.094,-0.125,145.875,-4.875,-6.438,-0.070,-0.040,-0.080,-0.830,1.100,9.700,0.293,0.057,-0.041,-0.954
363,25.736,-0.915,1.120,9.640,-69.875,-54.656,-43.250,-0.032,-0.093,-0.062,145.875,-4.875,-6.438,-0.080,0.015,-0.065,-0.830,1.100,9.700,0.293,0.057,-0.041,-0.954
364,25.807,-0.915,1.110,9.635,-69.656,-54.656,-42.875,0.000,-0.093,-0.031,145.875,-4.875,-6.438,-0.080,0.010,-0.070,-0.830,1.100,9.700,0.293,0.057,-0.041,-0.954
365,25.878,-0.915,1.110,9.615,-69.250,-55.281,-42.875,-0.062,-0.125,0.000,145.875,-4.875,-6.438,-0.145,0.005,0.040,-0.830,1.100,9.700,0.293,0.057,-0.041,-0.954
366,25.951,-0.930,1.130,9.600,-69.469,-55.281,-43.250,-0.062,0.093,-0.031,145.875,-4.875,-6.438,-0.100,0.020,-0.080,-0.830,1.100,9.700,0.293,0.057,-0.041,-0.954
367,26.022,-0.930,1.115,9.605,-69.875,-55.062,-43.375,-0.062,-0.188,-0.031,145.875,-4.875,-6.438,-0.105,0.000,-0.095,-0.830,1.100,9.700,0.293,0.057,-0.041,-0.954
367,26.022,-0.930,1.115,9.605,-69.875,-55.062,-43.375,-0.062,-0.188,-0.031,145.875,-4.875,-6.438,-0.105,0.000,-0.095,-0.830,1.100,9.700,0.293,0.057,-0.041,-0.954
368,26.093,-0.915,1.120,9.600,-69.875,-55.062,-43.000,-0.062,-0.125,-0.062,145.875,-4.875,-6.438,-0.090,-0.010,-0.105,-0.830,1.100,9.700,0.293,0.057,-0.041,-0.954
369,26.165,-0.985,1.145,9.705,-69.875,-55.281,-42.406,-0.093,-0.125,-0.032,145.875,-4.875,-6.438,-0.090,0.030,-0.115,-0.830,1.100,9.700,0.293,0.057,-0.041,-0.954
370,26.237,-0.920,1.130,9.610,-69.875,-55.094,-43.031,-0.062,-0.063,0.000,145.875,-4.844,-6.438,-0.085,0.030,-0.095,-0.830,1.100,9.700,0.293,0.057,-0.041,-0.954
371,26.305,-0.865,1.115,9.555,-69.688,-54.875,-43.031,0.000,0.000,0.000,145.875,-4.812,-6.438,-0.085,0.005,-0.080,-0.830,1.100,9.700,0.293,0.057,-0.041,-0.954
372,26.376,-0.880,1.125,9.565,-69.469,-55.062,-43.031,-0.032,0.063,0.031,145.875,-4.812,-6.438,-0.095,0.010,-0.070,-0.830,1.100,9.700,0.293,0.057,-0.041,-0.954
373,26.448,-0.915,1.090,9.625,-69.656,-54.875,-42.875,-0.062,-0.093,0.031,145.875,-4.812,-6.438,-0.080,-0.010,-0.080,-0.830,1.100,9.700,0.293,0.057,-0.041,-0.954
373,26.448,-0.915,1.090,9.625,-69.656,-54.875,-42.875,-0.062,-0.093,0.031,145.875,-4.812,-6.438,-0.080,-0.010,-0.080,-0.830,1.100,9.700,0.293,0.057,-0.041,-0.954
374,26.520,-0.910,1.045,9.635,-70.219,-55.094,-42.875,-0.031,-0.093,0.031,145.875,-4.812,-6.438,-0.065,-0.050,-0.080,-0.830,1.100,9.700,0.293,0.057,-0.041,-0.954
375,26.591,-0.885,1.070,9.600,-70.031,-55.094,-42.625,-0.031,-4.000,0.094,145.875,-4.812,-6.438,-0.085,-0.035,-0.070,-0.830,1.100,9.700,0.293,0.057,-0.041,-0.954
376,26.662,-0.890,1.090,9.650,-69.875,-54.875,-42.000,0.031,-4.063,0.032,145.875,-4.812,-6.438,-0.105,0.000,-0.110,-0.830,1.100,9.700,0.293,0.057,-0.041,-0.954
377,26.734,-0.895,1.085,9.635,-69.875,-55.062,-43.000,-0.032,0.187,-0.093,145.875,-4.812,-6.438,-0.100,-0.025,-0.075,-0.830,1.100,9.700,0.293,0.057,-0.042,-0.954
378,26.804,-0.930,1.110,9.630,-69.688,-55.281,-43.156,-0.093,-0.063,-0.062,145.875,-4.812,-6.438,-0.085,-0.035,-0.045,-0.830,1.100,9.700,0.293,0.057,-0.042,-0.954
379,26.876,-0.920,1.095,9.620,-69.875,-54.875,-43.031,-0.093,-0.032,0.000,145.875,-4.812,-6.438,-0.085,0.000,-0.050,-0.830,1.100,9.700,0.293,0.057,-0.042,-0.954
434,30.738,-0.925,1.140,9.590,-69.875,-54.656,-43.281,-0.032,0.312,0.031,145.875,-4.812,-6.438,-0.185,0.045,0.160,-0.825,1.100,9.700,0.293,0.057,-0.042,-0.954
435,30.809,-0.940,1.150,9.595,-69.469,-55.281,-43.031,0.125,0.312,-0.031,145.875,-4.812,-6.438,-0.130,0.045,-0.040,-0.820,1.100,9.700,0.293,0.057,-0.042,-0.954
435,30.809,-0.940,1.150,9.595,-69.469,-55.281,-43.031,0.125,0.312,-0.031,145.875,-4.812,-6.438,-0.130,0.045,-0.040,-0.820,1.100,9.700,0.293,0.057,-0.042,-0.954
436,30.879,-0.955,1.110,9.635,-69.469,-55.094,-42.625,0.000,0.312,-0.031,145.875,-4.812,-6.438,-0.110,-0.005,-0.130,-0.820,1.100,9.700,0.293,0.057,-0.042,-0.954
437,30.950,-0.950,1.110,9.625,-70.031,-55.094,-42.250,-0.032,0.438,-0.031,145.875,-4.812,-6.438,-0.120,-0.005,-0.095,-0.820,1.100,9.700,0.293,0.057,-0.042,-0.954
438,31.020,-0.910,1.110,9.595,-70.219,-54.875,-42.406,0.125,-0.125,-0.031,145.875,-4.812,-6.438,-0.130,0.035,-0.110,-0.820,1.100,9.700,0.293,0.057,-0.042,-0.954
439,31.091,-0.935,1.135,9.750,-69.875,-54.469,-43.031,0.093,-0.031,-0.062,145.875,-4.812,-6.438,-0.085,0.060,0.040,-0.820,1.100,9.700,0.293,0.057,-0.042,-0.954
440,31.162,-0.925,1.115,9.695,-69.469,-54.875,-43.031,0.031,-0.031,-0.032,145.875,-4.781,-6.438,-0.040,0.065,0.015,-0.815,1.100,9.700,0.293,0.057,-0.042,-0.954
441,31.230,-0.890,1.105,9.575,-69.719,-55.062,-42.562,-0.031,0.000,0.000,145.875,-4.750,-6.438,-0.065,0.045,-0.080,-0.815,1.100,9.700,0.293,0.057,-0.042,-0.954
441,31.230,-0.890,1.105,9.575,-69.719,-55.062,-42.562,-0.031,0.000,0.000,145.875,-4.750,-6.438,-0.065,0.045,-0.080,-0.815,1.100,9.700,0.293,0.057,-0.042,-0.954
442,31.300,-0.900,1.110,9.640,-69.781,-55.406,-42.781,0.032,0.000,-0.062,145.875,-4.750,-6.438,-0.065,0.025,-0.090,-0.815,1.100,9.700,0.293,0.057,-0.042,-0.954
443,31.371,-0.865,1.105,9.595,-69.375,-55.406,-43.250,0.062,-0.250,-0.062,145.875,-4.750,-6.438,-0.070,0.010,-0.060,-0.810,1.100,9.700,0.293,0.057,-0.042,-0.954
444,31.443,-0.865,1.095,9.635,-69.938,-55.281,-43.031,0.000,-0.032,-0.031,145.875,-4.750,-6.438,-0.060,0.000,-0.080,-0.810,1.100,9.700,0.293,0.057,-0.042,-0.954
445,31.513,-0.865,1.115,9.595,-70.344,-55.281,-43.031,-0.031,0.031,-0.094,145.875,-4.750,-6.438,-0.075,0.015,-0.090,-0.815,1.100,9.700,0.293,0.057,-0.042,-0.954
446,31.583,-0.880,1.140,9.545,-69.781,-54.656,-42.625,0.032,0.000,-0.063,145.875,-4.750,-6.438,-0.050,0.015,-0.180,-0.820,1.100,9.700,0.293,0.057,-0.042,-0.954
507,35.902,-0.885,1.130,9.500,-69.938,-55.000,-42.000,-0.032,0.031,-0.032,145.875,-4.844,-6.469,-0.080,-0.005,-0.095,-0.835,1.100,9.700,0.292,0.058,-0.042,-0.954
508,35.975,-0.860,1.120,9.435,-69.750,-55.406,-43.062,-0.094,-0.281,-0.062,145.875,-4.938,-6.500,-0.080,-0.005,-0.075,-0.850,1.100,9.700,0.292,0.058,-0.041,-0.954
509,36.044,-0.940,1.120,9.595,-69.375,-54.875,-43.468,-0.031,-0.125,-0.125,145.875,-4.938,-6.500,-0.090,0.010,-0.105,-0.850,1.100,9.700,0.292,0.058,-0.041,-0.954
510,36.115,-0.925,1.155,9.550,-69.750,-54.875,-43.031,-0.062,0.125,-0.094,145.875,-4.938,-6.500,-0.075,0.050,-0.145,-0.850,1.100,9.700,0.292,0.058,-0.041,-0.954
511,36.187,-0.915,1.150,9.555,-69.750,-55.281,-42.781,0.094,-0.062,0.062,145.875,-4.969,-6.500,-0.065,0.045,-0.145,-0.850,1.100,9.700,0.292,0.058,-0.041,-0.954
512,36.258,-0.915,1.100,9.610,-69.562,-54.750,-43.031,0.156,0.000,0.000,145.875,-5.000,-6.500,-0.125,0.005,0.020,-0.850,1.100,9.700,0.292,0.058,-0.041,-0.954
512,36.258,-0.915,1.100,9.610,-69.562,-54.750,-43.031,0.156,0.000,0.000,145.875,-5.000,-6.500,-0.125,0.005,0.020,-0.850,1.100,9.700,0.292,0.058,-0.041,-0.954
513,36.330,-0.925,1.120,9.605,-69.375,-54.750,-43.875,0.062,0.125,-0.093,145.875,-5.000,-6.500,-0.070,0.025,-0.095,-0.850,1.100,9.700,0.292,0.058,-0.041,-0.954
514,36.399,-0.925,1.120,9.615,-69.375,-55.500,-43.656,0.125,0.094,-0.032,145.875,-5.000,-6.500,-0.070,0.020,-0.105,-0.850,1.100,9.700,0.292,0.058,-0.041,-0.954
515,36.471,-0.910,1.085,9.630,-69.562,-55.500,-43.062,0.032,-0.344,0.000,145.875,-5.000,-6.500,-0.115,0.000,0.000,-0.850,1.100,9.700,0.292,0.058,-0.041,-0.954
516,36.542,-0.895,1.095,9.645,-69.750,-55.281,-43.281,-0.032,-0.125,-0.125,145.875,-5.000,-6.500,-0.070,0.015,-0.095,-0.850,1.100,9.700,0.292,0.058,-0.041,-0.954
517,36.614,-0.895,1.070,9.630,-69.562,-54.875,-43.281,0.062,-0.157,-0.032,145.875,-5.000,-6.500,-0.050,0.005,-0.095,-0.850,1.100,9.700,0.292,0.058,-0.041,-0.954
518,36.685,-0.900,1.070,9.620,-69.781,-54.875,-43.281,0.031,-0.094,0.062,145.875,-5.000,-6.500,-0.040,-0.010,-0.075,-0.850,1.100,9.700,0.292,0.058,-0.041,-0.954
518,36.685,-0.900,1.070,9.620,-69.781,-54.875,-43.281,0.031,-0.094,0.062,145.875,-5.000,-6.500,-0.040,-0.010,-0.075,-0.850,1.100,9.700,0.292,0.058,-0.041,-0.954
519,36.756,-0.900,1.105,9.610,-70.188,-55.062,-43.281,-0.062,0.000,0.031,145.875,-5.000,-6.500,-0.065,-0.005,-0.075,-0.850,1.100,9.700,0.292,0.058,-0.041,-0.954
520,36.827,-0.915,1.085,9.640,-69.594,-55.062,-43.468,-0.093,0.000,0.000,145.875,-5.000,-6.500,-0.065,-0.020,-0.060,-0.850,1.100,9.700,0.292,0.058,-0.041,-0.954
521,36.896,-0.925,1.090,9.640,-69.375,-55.281,-43.218,0.032,-0.062,-0.093,145.875,-5.000,-6.500,-0.070,-0.030,-0.055,-0.850,1.100,9.700,0.292,0.058,-0.041,-0.954
522,36.974,-0.940,1.110,9.620,-69.750,-55.094,-42.218,0.093,-0.032,0.000,145.875,-5.000,-6.500,-0.105,-0.015,-0.005,-0.850,1.100,9.700,0.292,0.058,-0.041,-0.954
523,37.045,-0.940,1.090,9.640,-69.750,-54.875,-42.438,0.031,0.031,0.062,145.875,-5.000,-6.500,-0.075,-0.010,-0.065,-0.850,1.100,9.700,0.292,0.058,-0.041,-0.954
524,37.116,-0.940,1.095,9.620,-69.562,-55.062,-43.031,-0.031,0.031,0.000,145.875,-5.000,-6.500,-0.080,-0.005,-0.075,-0.850,1.100,9.700,0.292,0.058,-0.041,-0.954
524,37.116,-0.940,1.095,9.620,-69.562,-55.062,-43.031,-0.031,0.031,0.000,145.875,-5.000,-6.500,-0.080,-0.005,-0.075,-0.850,1.100,9.700,0.292,0.058,-0.041,-0.954
525,37.187,-0.935,1.110,9.615,-69.562,-55.406,-43.062,0.063,0.125,-0.094,145.875,-5.000,-6.500,-0.065,0.015,-0.090,-0.850,1.100,9.700,0.292,0.058,-0.041,-0.954
526,37.260,-0.950,1.115,9.710,-69.562,-55.406,-42.656,0.125,-0.031,-0.094,145.875,-5.000,-6.500,-0.050,0.020,-0.070,-0.850,1.100,9.700,0.292,0.059,-0.041,-0.954
527,37.332,-0.895,1.115,9.615,-69.938,-55.062,-42.656,0.062,-0.094,-0.031,145.875,-5.000,-6.500,-0.040,0.005,-0.075,-0.850,1.100,9.700,0.292,0.058,-0.041,-0.954
528,37.402,-0.915,1.115,9.625,-70.125,-55.281,-43.062,0.093,-0.125,0.000,145.875,-5.000,-6.500,-0.060,0.005,-0.075,-0.850,1.100,9.700,0.292,0.058,-0.041,-0.954
529,37.473,-0.920,1.115,9.620,-69.969,-55.094,-42.468,0.125,-0.031,0.031,145.875,-5.000,-6.500,-0.115,0.005,-0.005,-0.850,1.100,-154.140,0.292,0.058,-0.041,-0.954
530,37.544,-0.925,1.115,9.625,-69.781,-54.875,-42.218,0.062,0.031,-0.031,145.875,-5.000,-6.500,-0.095,0.010,-0.095,-0.850,1.100,-154.140,0.292,0.058,-0.041,-0.954
530,37.544,-0.925,1.115,9.625,-69.781,-54.875,-42.218,0.062,0.031,-0.031,145.875,-5.000,-6.500,-0.095,0.010,-0.095,-0.850,1.100,-154.140,0.292,0.058,-0.041,-0.954
531,37.615,-0.935,1.115,9.615,-69.375,-54.875,-43.031,-0.062,0.344,-0.125,145.875,-5.000,-6.500,-0.090,0.010,-0.100,-0.850,1.100,9.700,0.292,0.058,-0.041,-0.954
532,37.687,-0.940,1.105,9.615,-69.188,-54.875,-42.688,0.000,0.188,-0.094,145.875,-5.000,-6.500,-0.070,0.000,-0.080,-0.850,1.100,9.700,0.292,0.059,-0.041,-0.954
533,37.758,-0.925,1.095,9.625,-69.375,-55.062,-42.468,0.093,-0.031,-0.031,145.875,-5.000,-6.500,-0.060,0.010,-0.100,-0.850,1.100,9.700,0.292,0.059,-0.041,-0.954
534,37.829,-0.920,1.085,9.630,-69.562,-54.875,-43.062,0.062,-0.125,-0.031,145.875,-5.000,-6.500,-0.065,0.010,-0.095,-0.850,1.100,9.700,0.292,0.059,-0.041,-0.954
535,37.898,-0.910,1.085,9.630,-69.781,-55.094,-42.468,0.093,0.062,-0.031,145.875,-5.000,-6.500,-0.060,0.005,-0.080,-0.850,1.100,9.700,0.292,0.059,-0.041,-0.954
536,37.970,-0.895,1.100,9.610,-69.781,-54.875,-41.875,-0.062,0.062,0.032,145.875,-5.000,-6.500,-0.060,-0.005,-0.055,-0.850,1.100,9.700,0.292,0.059,-0.041,-0.954
536,37.970,-0.895,1.100,9.610,-69.781,-54.875,-41.875,-0.062,0.062,0.032,145.875,-5.000,-6.500,-0.060,-0.005,-0.055,-0.850,1.100,9.700,0.292,0.059,-0.041,-0.954
537,38.042,-0.930,1.110,9.655,-69.781,-54.656,-42.282,-0.062,-0.219,0.032,145.875,-5.000,-6.500,-0.050,-0.010,-0.075,-0.850,1.100,9.700,0.292,0.059,-0.041,-0.954
538,38.113,-0.905,1.115,9.615,-70.531,-55.281,-42.625,0.062,-0.062,0.032,145.875,-5.000,-6.500,-0.050,0.005,-0.075,-0.850,1.100,9.700,0.292,0.059,-0.041,-0.954
539,38.184,-0.905,1.110,9.620,-70.312,-55.281,-42.562,0.062,-0.093,0.093,145.875,-5.000,-6.500,-0.050,0.005,-0.075,-0.850,1.100,9.700,0.292,0.059,-0.041,-0.954
540,38.254,-0.915,1.095,9.615,-69.969,-55.062,-42.812,0.032,0.000,0.062,145.875,-5.000,-6.500,-0.065,-0.005,-0.080,-0.850,1.100,9.700,0.292,0.059,-0.041,-0.954
541,38.326,-0.915,1.110,9.615,-70.344,-55.062,-42.406,-0.031,0.000,0.093,145.875,-5.000,-6.500,-0.030,-0.005,-0.105,-0.850,1.100,9.700,0.292,0.059,-0.041,-0.954
541,38.326,-0.915,1.110,9.615,-70.344,-55.062,-42.406,-0.031,0.000,0.093,145.875,-5.000,-6.500,-0.030,-0.005,-0.105,-0.850,1.100,9.700,0.292,0.059,-0.041,-0.954
542,38.397,-0.910,1.110,9.620,-70.344,-55.062,-42.000,0.031,0.000,0.032,145.875,-5.000,-6.500,-0.055,0.010,-0.060,-0.850,1.100,9.700,0.292,0.059,-0.041,-0.954
543,38.469,-0.920,1.090,9.615,-70.188,-54.875,-42.406,0.000,-0.188,-0.062,145.875,-5.000,-6.500,-0.060,0.010,-0.070,-0.850,1.100,9.700,0.292,0.059,-0.041,-0.954
544,38.545,-0.965,1.085,9.665,-70.188,-54.688,-42.156,0.000,-0.032,-0.031,145.875,-5.000,-6.500,-0.070,-0.010,-0.070,-0.850,1.100,9.700,0.292,0.059,-0.041,-0.954
545,38.618,-0.950,1.095,9.640,-69.969,-54.688,-42.000,0.031,0.093,-0.031,145.875,-5.000,-6.500,-0.075,-0.010,-0.080,-0.850,1.100,9.700,0.292,0.059,-0.041,-0.954
546,38.689,-0.940,1.105,9.615,-69.969,-54.875,-42.469,0.062,0.031,-0.093,145.875,-5.000,-6.500,-0.085,-0.010,-0.135,-0.850,1.100,9.700,0.292,0.059,-0.041,-0.954
547,38.759,-0.930,1.095,9.665,-70.344,-55.062,-42.625,-0.032,-0.281,-0.093,145.875,-5.000,-6.500,-0.040,-0.010,-0.175,-0.850,1.100,9.700,0.292,0.058,-0.041,-0.954
547,38.759,-0.930,1.095,9.665,-70.344,-55.062,-42.625,-0.032,-0.281,-0.093,145.875,-5.000,-6.500,-0.040,-0.010,-0.175,-0.850,1.100,9.700,0.292,0.058,-0.041,-0.954
548,38.829,-0.945,1.075,9.645,-70.344,-55.062,-42.562,-0.094,-0.625,0.000,145.875,-5.000,-6.500,-0.020,0.010,-0.090,-0.850,1.100,9.700,0.292,0.058,-0.041,-0.954
549,38.901,-0.935,1.080,9.585,-70.188,-55.281,-42.812,-0.031,-0.313,0.031,145.875,-5.000,-6.500,-0.055,0.015,-0.075,-0.850,1.100,9.700,0.292,0.058,-0.041,-0.954
550,38.974,-0.870,1.125,9.530,-69.781,-55.281,-42.812,-0.125,-0.094,-0.125,145.875,-5.000,-6.500,-0.070,0.015,-0.105,-0.850,1.100,9.700,0.292,0.058,-0.041,-0.954
551,39.045,-0.855,1.135,9.500,-69.562,-55.062,-42.562,-0.125,-0.094,-0.125,145.875,-5.000,-6.500,-0.065,0.015,-0.105,-0.850,1.100,9.700,0.292,0.058,-0.041,-0.954
552,39.116,-0.905,1.125,9.610,-69.562,-55.062,-43.031,-0.062,0.062,0.000,145.875,-5.000,-6.500,-0.055,0.015,-0.095,-0.850,1.100,9.700,0.292,0.058,-0.041,-0.954
553,39.187,-0.905,1.125,9.635,-69.375,-54.875,-43.281,-0.031,0.125,0.000,145.875,-5.000,-6.500,-0.060,0.015,-0.070,-0.850,1.100,9.700,0.292,0.058,-0.041,-0.954
553,39.187,-0.905,1.125,9.635,-69.375,-54.875,-43.281,-0.031,0.125,0.000,145.875,-5.000,-6.500,-0.060,0.015,-0.070,-0.850,1.100,9.700,0.292,0.058,-0.041,-0.954
554,39.257,-0.915,1.120,9.630,-69.781,-55.219,-42.656,0.031,-0.031,0.031,145.875,-5.000,-6.500,-0.070,0.010,-0.075,-0.850,1.100,9.700,0.292,0.058,-0.041,-0.954
555,39.330,-0.930,1.090,9.620,-69.969,-55.625,-42.062,0.031,-0.094,0.031,145.875,-5.000,-6.500,-0.120,-0.005,0.020,-0.850,1.100,9.700,0.292,0.058,-0.041,-0.954
556,39.402,-0.935,1.085,9.610,-69.375,-55.625,-42.062,0.000,-0.438,0.031,145.875,-4.969,-6.500,-0.075,-0.030,-0.185,-0.850,1.100,9.700,0.292,0.058,-0.041,-0.954
557,39.473,-0.930,1.110,9.655,-69.750,-55.219,-42.062,-0.062,0.531,-0.063,145.875,-4.969,-6.500,-0.090,-0.020,-0.090,-0.850,1.100,9.700,0.292,0.058,-0.041,-0.954
558,39.544,-0.925,1.110,9.675,-70.125,-55.094,-42.812,-0.218,0.594,-0.063,145.875,-4.969,-6.500,-0.075,-0.005,0.045,-0.850,1.100,9.700,0.292,0.058,-0.041,-0.954
558,39.544,-0.925,1.110,9.675,-70.125,-55.094,-42.812,-0.218,0.594,-0.063,145.875,-4.969,-6.500,-0.075,-0.005,0.045,-0.850,1.100,9.700,0.292,0.058,-0.041,-0.954
559,39.616,-0.925,1.115,9.600,-69.750,-55.281,-43.625,-0.125,-0.312,0.031,145.875,-4.938,-6.500,-0.070,0.010,-0.075,-0.850,1.100,9.700,0.292,0.058,-0.041,-0.954
560,39.687,-0.915,1.070,9.590,-69.750,-55.281,-43.500,-0.063,-0.437,0.062,145.875,-4.938,-6.500,-0.070,-0.005,-0.075,-0.850,1.100,9.700,0.292,0.058,-0.041,-0.954
561,39.756,-0.935,1.080,9.630,-69.969,-55.094,-43.281,-0.188,-0.344,0.032,145.875,-4.938,-6.500,-0.065,-0.005,-0.050,-0.850,1.100,9.700,0.292,0.058,-0.041,-0.954
562,39.827,-0.960,1.115,9.685,-70.188,-54.344,-43.062,0.000,-0.157,0.000,145.875,-4.938,-6.500,-0.070,0.050,-0.050,-0.850,1.100,9.700,0.292,0.058,-0.041,-0.954
563,39.900,-0.960,1.075,9.720,-70.188,-54.750,-42.812,0.157,-0.094,-0.063,145.875,-4.938,-6.500,-0.040,0.015,-0.110,-0.845,1.100,9.700,0.292,0.058,-0.041,-0.954
564,39.972,-0.930,1.085,9.645,-69.781,-54.875,-42.812,-0.032,-0.125,-0.032,145.875,-4.938,-6.500,-0.075,-0.025,-0.035,-0.840,1.100,9.700,0.292,0.058,-0.041,-0.954
564,39.972,-0.930,1.085,9.645,-69.781,-54.875,-42.812,-0.032,-0.125,-0.032,145.875,-4.938,-6.500,-0.075,-0.025,-0.035,-0.840,1.100,9.700,0.292,0.058,-0.041,-0.954
565,40.043,-0.940,1.125,9.615,-69.938,-54.656,-43.468,-0.094,-0.062,0.032,145.875,-4.938,-6.500,-0.080,0.005,-0.065,-0.840,1.100,9.700,0.292,0.058,-0.041,-0.954
566,40.114,-0.910,1.110,9.625,-69.938,-55.281,-42.282,-0.062,0.032,-0.031,145.875,-4.938,-6.500,-0.070,0.010,-0.110,-0.840,1.100,9.700,0.292,0.058,-0.041,-0.954
567,40.185,-0.870,1.105,9.620,-69.781,-55.094,-41.282,-0.093,-0.187,0.062,145.875,-4.938,-6.500,-0.040,0.000,-0.070,-0.840,1.100,9.700,0.292,0.058,-0.041,-0.954
568,40.256,-0.885,1.115,9.615,-69.969,-54.688,-42.468,-0.062,-0.125,0.032,145.875,-4.938,-6.500,-0.020,-0.010,-0.085,-0.845,1.100,9.700,0.292,0.058,-0.041,-0.954
569,40.327,-0.905,1.070,9.615,-69.750,-55.094,-42.656,0.000,-0.188,-0.093,145.875,-4.938,-6.500,-0.045,-0.030,-0.075,-0.850,1.100,9.700,0.292,0.058,-0.041,-0.954
570,40.398,-0.935,1.050,9.635,-70.125,-55.500,-43.062,0.000,-0.094,-0.062,145.875,-4.938,-6.500,-0.060,-0.055,-0.065,-0.850,1.100,9.700,0.292,0.058,-0.041,-0.954
570,40.398,-0.935,1.050,9.635,-70.125,-55.500,-43.062,0.000,-0.094,-0.062,145.875,-4.938,-6.500,-0.060,-0.055,-0.065,-0.850,1.100,9.700,0.292,0.058,-0.041,-0.954
571,40.469,-0.930,1.070,9.630,-70.125,-55.625,-43.062,-0.031,-0.031,0.062,145.875,-4.938,-6.500,-0.100,-0.045,-0.055,-0.850,1.100,9.700,0.292,0.058,-0.041,-0.954
572,40.541,-0.865,1.075,9.545,-69.969,-55.219,-42.625,0.000,0.000,0.032,145.875,-4.938,-6.500,-0.070,-0.020,-0.080,-0.850,1.100,9.700,0.292,0.058,-0.041,-0.954
573,40.611,-0.900,1.100,9.620,-69.594,-54.875,-42.781,-0.031,-0.188,0.032,145.875,-4.938,-6.500,-0.050,0.000,-0.075,-0.850,1.100,9.700,0.292,0.058,-0.041,-0.954
574,40.683,-0.915,1.115,9.600,-69.375,-55.062,-42.812,0.000,-0.125,0.032,145.875,-4.938,-6.500,-0.060,0.010,-0.095,-0.850,1.100,9.700,0.292,0.058,-0.041,-0.954
575,40.756,-0.945,1.105,9.620,-69.969,-55.062,-43.468,0.062,-0.156,0.032,145.875,-4.938,-6.500,-0.040,-0.005,-0.125,-0.850,1.100,9.700,0.292,0.058,-0.041,-0.954
576,40.827,-0.935,1.115,9.615,-70.719,-55.281,-43.875,0.000,-0.031,0.000,145.875,-4.938,-6.500,-0.075,0.000,-0.070,-0.850,1.100,9.700,0.292,0.058,-0.041,-0.954
576,40.827,-0.935,1.115,9.615,-70.719,-55.281,-43.875,0.000,-0.031,0.000,145.875,-4.938,-6.500,-0.075,0.000,-0.070,-0.850,1.100,9.700,0.292,0.058,-0.041,-0.954
577,40.897,-0.935,1.135,9.620,-70.875,-55.625,-43.468,0.000,-0.031,0.000,145.875,-4.938,-6.500,-0.075,0.015,-0.055,-0.845,1.100,9.700,0.292,0.058,-0.041,-0.954
578,40.966,-0.930,1.135,9.610,-70.344,-55.219,-42.812,0.125,-0.312,0.032,145.875,-4.938,-6.500,-0.065,0.010,-0.080,-0.840,1.100,9.700,0.292,0.058,-0.041,-0.954
579,41.037,-0.920,1.110,9.605,-69.969,-55.094,-42.812,0.063,-0.125,0.000,145.875,-4.938,-6.500,-0.080,-0.005,-0.075,-0.840,1.100,9.700,0.292,0.058,-0.041,-0.954
580,41.108,-0.910,1.095,9.610,-69.969,-55.500,-42.656,-0.093,-0.188,0.062,145.875,-4.938,-6.500,-0.065,-0.005,-0.100,-0.840,1.100,9.700,0.292,0.058,-0.041,-0.954
581,41.178,-0.910,1.095,9.615,-69.969,-54.875,-42.656,-0.093,-0.062,-0.063,145.875,-4.938,-6.500,-0.080,0.005,-0.075,-0.840,1.100,9.700,0.292,0.058,-0.041,-0.954
582,41.248,-0.925,1.085,9.635,-69.219,-54.469,-42.812,0.032,-0.157,-0.063,145.875,-4.938,-6.500,-0.075,-0.005,-0.085,-0.840,1.100,9.700,0.292,0.058,-0.041,-0.954
582,41.248,-0.925,1.085,9.635,-69.219,-54.469,-42.812,0.032,-0.157,-0.063,145.875,-4.938,-6.500,-0.075,-0.005,-0.085,-0.840,1.100,9.700,0.292,0.058,-0.041,-0.954
583,41.318,-0.915,1.085,9.640,-69.031,-54.875,-42.406,0.062,-0.219,0.031,145.875,-4.938,-6.500,-0.085,-0.010,-0.090,-0.840,1.100,9.700,0.292,0.058,-0.041,-0.954
584,41.389,-0.910,1.070,9.645,-69.562,-55.281,-43.250,0.062,-0.281,-0.031,145.875,-4.938,-6.500,-0.065,-0.015,-0.085,-0.840,1.100,9.700,0.292,0.058,-0.041,-0.954
585,41.460,-0.910,1.075,9.610,-69.750,-54.875,-42.875,0.032,-0.250,-0.093,145.875,-4.938,-6.500,-0.060,-0.025,-0.065,-0.840,1.100,9.700,0.292,0.058,-0.041,-0.954
586,41.530,-0.975,1.100,9.685,-69.969,-54.656,-42.031,0.000,-0.094,-0.032,145.875,-4.938,-6.500,-0.060,-0.015,-0.085,-0.840,1.100,9.700,0.292,0.058,-0.041,-0.954
587,41.600,-0.930,1.075,9.630,-70.188,-54.875,-42.562,0.031,0.156,0.093,145.875,-4.938,-6.500,-0.055,-0.005,-0.085,-0.840,1.100,9.700,0.292,0.058,-0.041,-0.954
588,41.675,-0.870,1.065,9.535,-70.344,-54.688,-42.406,0.031,0.312,0.093,145.875,-4.938,-6.500,-0.065,-0.010,-0.075,-0.840,1.100,9.700,0.292,0.058,-0.041,-0.954
588,41.675,-0.870,1.065,9.535,-70.344,-54.688,-42.406,0.031,0.312,0.093,145.875,-4.938,-6.500,-0.065,-0.010,-0.075,-0.840,1.100,9.700,0.292,0.058,-0.041,-0.954
589,41.746,-0.930,1.095,9.615,-70.125,-55.094,-42.406,0.031,0.125,0.062,145.875,-4.938,-6.500,-0.080,-0.005,-0.090,-0.840,1.100,9.700,0.292,0.058,-0.041,-0.954
590,41.814,-0.980,1.125,9.695,-69.562,-55.625,-42.218,0.031,0.094,0.031,145.875,-4.938,-6.500,-0.075,0.010,-0.090,-0.840,1.100,9.700,0.292,0.058,-0.041,-0.954
591,41.885,-0.965,1.130,9.690,-69.562,-55.406,-42.218,0.031,-0.094,0.000,145.875,-4.938,-6.500,-0.060,0.015,-0.095,-0.840,1.100,9.700,0.292,0.058,-0.041,-0.954
592,41.956,-0.905,1.120,9.635,-69.969,-54.875,-42.406,-0.062,0.000,-0.031,145.875,-4.938,-6.500,-0.055,0.010,-0.070,-0.840,1.100,9.700,0.292,0.058,-0.041,-0.954
593,42.027,-0.905,1.115,9.600,-70.188,-54.875,-42.875,-0.062,-0.031,-0.062,145.875,-4.938,-6.500,-0.055,0.005,-0.100,-0.840,1.100,9.700,0.292,0.058,-0.041,-0.954
594,42.098,-0.930,1.115,9.615,-69.781,968.938,-43.031,-0.031,0.000,-0.062,145.875,-4.938,-6.500,-0.080,0.005,-0.085,-0.840,1.100,9.700,0.292,0.058,-0.041,-0.954
594,42.098,-0.930,1.115,9.615,-69.781,968.938,-43.031,-0.031,0.000,-0.062,145.875,-4.938,-6.500,-0.080,0.005,-0.085,-0.840,1.100,9.700,0.292,0.058,-0.041,-0.954
595,42.167,-0.920,1.100,9.620,-69.562,968.938,-42.218,-0.031,-0.062,-0.031,145.875,-4.938,-6.500,-0.070,-0.005,-0.080,-0.840,1.100,9.700,0.292,0.058,-0.041,-0.954
596,42.237,-0.930,1.090,9.645,-69.375,-54.656,-42.812,-0.031,-0.093,-0.031,145.875,-4.938,-6.500,-0.080,-0.010,-0.050,-0.840,1.100,9.700,0.292,0.058,-0.041,-0.954
597,42.308,-0.910,1.075,9.610,-69.188,-54.656,-43.625,-0.031,-0.031,-0.093,145.875,-4.938,-6.500,-0.065,-0.025,-0.085,-0.840,1.100,9.700,0.292,0.058,-0.041,-0.954
598,42.378,-0.915,1.070,9.620,-69.562,-55.062,-43.281,-0.031,0.156,-0.157,145.875,-4.938,-6.500,-0.070,-0.030,-0.075,-0.840,1.100,9.700,0.292,0.058,-0.041,-0.954
599,42.450,-0.895,1.090,9.610,-69.562,-55.406,-43.062,0.032,0.094,-0.032,145.875,-4.938,-6.500,-0.045,-0.010,-0.080,-0.840,1.100,9.700,0.292,0.058,-0.041,-0.954
600,42.519,-0.910,1.090,9.650,-69.781,-54.875,-42.656,0.125,-0.032,0.093,145.875,-4.938,-6.500,-0.060,-0.010,-0.050,-0.840,1.100,9.700,0.292,0.058,-0.041,-0.954
600,42.519,-0.910,1.090,9.650,-69.781,-54.875,-42.656,0.125,-0.032,0.093,145.875,-4.938,-6.500,-0.060,-0.010,-0.050,-0.840,1.100,9.700,0.292,0.058,-0.041,-0.954
601,42.590,-0.915,1.070,9.645,-70.344,-53.781,-42.000,0.032,0.000,0.031,145.875,-4.938,-6.500,-0.065,-0.025,-0.060,-0.840,1.100,9.700,0.292,0.058,-0.041,-0.954
602,42.661,-0.925,1.085,9.655,-69.938,-54.125,-42.156,-0.031,0.032,0.062,145.875,-4.938,-6.500,-0.035,-0.025,-0.130,-0.840,1.100,9.700,0.292,0.058,-0.041,-0.954
603,42.732,-0.920,1.105,9.625,-69.562,-54.688,-43.031,0.031,0.000,0.062,145.875,-4.938,-6.500,-0.080,-0.005,-0.085,-0.840,1.100,9.700,0.292,0.058,-0.041,-0.954
604,42.803,-0.915,1.100,9.610,-69.969,-55.219,-42.875,0.031,0.000,-0.031,145.875,-4.938,-6.500,-0.115,0.005,-0.020,-0.840,1.100,9.700,0.292,0.058,-0.041,-0.954
605,42.872,-0.900,1.100,9.625,-69.969,-55.625,-42.406,-0.031,0.032,0.000,145.875,-4.938,-6.500,-0.095,-0.005,-0.040,-0.840,1.100,9.700,0.292,0.058,-0.041,-0.954
606,42.943,-0.920,1.100,9.625,-69.750,-55.500,-43.031,-0.062,-0.031,-0.063,145.875,-4.938,-6.500,-0.075,-0.005,-0.060,-0.840,1.100,9.700,0.292,0.058,-0.041,-0.954
606,42.943,-0.920,1.100,9.625,-69.750,-55.500,-43.031,-0.062,-0.031,-0.063,145.875,-4.938,-6.500,-0.075,-0.005,-0.060,-0.840,1.100,9.700,0.292,0.058,-0.041,-0.954
607,43.014,-0.930,1.090,9.625,-69.969,-55.500,-43.625,-0.062,0.156,-0.125,145.875,-4.938,-6.500,-0.070,0.000,-0.100,-0.840,1.100,9.700,0.292,0.058,-0.041,-0.954
608,43.085,-0.845,1.090,9.510,-70.188,-55.281,-43.000,-0.031,0.125,-0.125,145.875,-4.938,-6.500,-0.090,-0.010,-0.090,-0.840,1.100,9.700,0.292,0.058,-0.041,-0.954
609,43.155,-0.920,1.095,9.610,-69.781,-54.656,-42.656,0.031,0.032,-0.032,145.875,-4.938,-6.500,-0.070,-0.015,-0.095,-0.840,1.100,9.700,0.292,0.058,-0.041,-0.954
610,43.224,-0.930,1.080,9.610,-69.562,-54.250,-42.656,0.062,-0.093,0.093,145.875,-4.938,-6.500,-0.060,-0.005,-0.090,-0.840,1.100,9.700,0.292,0.058,-0.041,-0.954
611,43.295,-0.920,1.085,9.620,-69.750,-54.875,-43.062,0.062,-0.093,-0.032,145.875,-4.938,-6.500,-0.055,-0.010,-0.075,-0.840,1.100,9.700,0.292,0.058,-0.041,-0.954
612,43.366,-0.925,1.090,9.615,-69.750,-54.875,-43.218,0.093,-0.125,-0.062,145.875,-4.938,-6.500,-0.080,-0.020,-0.070,-0.840,1.100,9.700,0.292,0.058,-0.041,-0.954
612,43.366,-0.925,1.090,9.615,-69.750,-54.875,-43.218,0.093,-0.125,-0.062,145.875,-4.938,-6.500,-0.080,-0.020,-0.070,-0.840,1.100,9.700,0.292,0.058,-0.041,-0.954
613,43.436,-0.930,1.090,9.595,-69.969,-54.469,-43.781,0.062,0.000,-0.031,145.875,-4.938,-6.500,-0.075,-0.015,-0.075,-0.840,1.100,9.700,0.292,0.058,-0.041,-0.954
614,43.507,-0.920,1.090,9.620,-70.188,-55.094,-43.625,-0.062,-0.125,-0.062,145.875,-4.938,-6.500,-0.065,-0.005,-0.065,-0.840,1.100,9.700,0.292,0.058,-0.041,-0.954
615,43.575,-0.915,1.090,9.605,-69.594,-55.281,-42.875,-0.093,0.032,-0.062,145.875,-4.938,-6.500,-0.070,-0.005,-0.080,-0.840,1.100,9.700,0.292,0.058,-0.041,-0.954
616,43.646,-0.930,1.095,9.605,-69.000,-55.062,-43.031,0.000,0.063,0.000,145.875,-4.938,-6.500,-0.080,-0.005,-0.075,-0.840,1.100,9.700,0.292,0.058,-0.041,-0.954
617,43.717,-0.915,1.090,9.590,-69.188,-55.062,-43.156,0.000,-0.031,0.031,145.875,-4.938,-6.500,-0.080,-0.005,-0.055,-0.840,1.100,9.700,0.292,0.058,-0.041,-0.954
618,43.788,-0.925,1.095,9.620,-69.375,-55.062,-43.156,-0.093,-0.031,0.031,145.875,-4.938,-6.500,-0.075,-0.005,-0.080,-0.840,1.100,9.700,0.292,0.058,-0.041,-0.954
619,43.858,-0.925,1.110,9.620,-69.188,-55.062,-43.031,-0.093,0.032,0.031,145.875,-4.938,-6.500,-0.080,0.000,-0.080,-0.840,1.100,9.700,0.292,0.058,-0.041,-0.954
619,43.858,-0.925,1.110,9.620,-69.188,-55.062,-43.031,-0.093,0.032,0.031,145.875,-4.938,-6.500,-0.080,0.000,-0.080,-0.840,1.100,9.700,0.292,0.058,-0.041,-0.954
620,43.927,-0.925,1.105,9.640,-69.375,-55.062,-43.031,-0.031,0.093,-0.031,145.875,-4.938,-6.500,-0.055,0.000,-0.110,-0.840,1.100,9.700,0.292,0.058,-0.041,-0.954
621,43.999,-0.900,1.105,9.605,-69.562,-55.062,-43.156,0.031,-0.032,-0.031,145.875,-4.938,-6.500,-0.065,-0.010,-0.095,-0.840,1.100,9.700,0.292,0.058,-0.041,-0.954
622,44.069,-0.920,1.110,9.620,-69.781,-55.406,-43.406,0.062,0.281,-0.031,145.875,-4.938,-6.500,-0.075,-0.010,-0.090,-0.840,1.100,9.700,0.292,0.058,-0.041,-0.954
623,44.140,-0.920,1.095,9.615,-70.188,-55.219,-43.281,0.031,0.125,-0.062,145.875,-4.938,-6.500,-0.080,0.000,-0.075,-0.840,1.100,9.700,0.292,0.058,-0.041,-0.954
624,44.210,-0.925,1.095,9.625,-69.969,-54.875,-43.281,-0.062,-0.063,0.000,145.875,-4.938,-6.500,-0.070,0.000,-0.085,-0.840,1.100,9.700,0.292,0.058,-0.041,-0.954
625,44.279,-0.910,1.100,9.620,-69.562,-55.062,-42.656,-0.032,-0.063,0.093,145.875,-4.938,-6.500,-0.075,-0.005,-0.075,-0.840,1.100,9.700,0.292,0.058,-0.041,-0.954
625,44.279,-0.910,1.100,9.620,-69.562,-55.062,-42.656,-0.032,-0.063,0.093,145.875,-4.938,-6.500,-0.075,-0.005,-0.075,-0.840,1.100,9.700,0.292,0.058,-0.041,-0.954
626,44.350,-0.920,1.085,9.630,-69.781,-55.062,-43.000,0.031,0.031,0.093,145.875,-4.938,-6.500,-0.070,-0.010,-0.085,-0.840,1.100,9.700,0.292,0.058,-0.041,-0.954
627,44.420,-0.920,1.080,9.630,-70.188,-55.062,-43.156,0.062,0.031,0.062,145.875,-4.938,-6.500,-0.080,-0.005,-0.060,-0.840,1.100,9.700,0.292,0.058,-0.041,-0.954
628,44.491,-0.935,1.095,9.635,-69.969,-55.062,-42.812,0.032,0.093,-0.063,145.875,-4.938,-6.500,-0.070,0.000,-0.085,-0.840,1.100,9.700,0.292,0.058,-0.041,-0.954
629,44.562,-0.930,1.085,9.620,-69.562,-55.062,-42.656,-0.031,0.032,-0.157,145.875,-4.938,-6.500,-0.075,-0.005,-0.070,-0.840,1.100,9.700,0.292,0.058,-0.041,-0.954
630,44.631,-0.930,1.070,9.635,-69.375,-54.312,-42.656,-0.031,0.000,-0.093,145.875,-4.938,-6.500,-0.075,-0.005,-0.040,-0.840,1.100,9.700,0.292,0.058,-0.041,-0.954
631,44.705,-0.920,1.070,9.630,-69.938,-54.531,-43.062,0.000,0.125,-0.062,145.875,-4.938,-6.500,-0.060,-0.010,-0.080,-0.840,1.100,9.700,0.292,0.058,-0.041,-0.954
631,44.705,-0.920,1.070,9.630,-69.938,-54.531,-43.062,0.000,0.125,-0.062,145.875,-4.938,-6.500,-0.060,-0.010,-0.080,-0.840,1.100,9.700,0.292,0.058,-0.041,-0.954
632,44.774,-0.910,1.090,9.630,-70.125,-55.094,-43.406,0.000,0.094,-0.062,145.875,-4.938,-6.500,-0.080,-0.010,-0.060,-0.840,1.100,9.700,0.292,0.058,-0.041,-0.954
633,44.844,-0.900,1.090,9.620,-69.750,-55.094,-44.000,-0.062,0.125,-0.031,145.875,-4.938,-6.500,-0.085,-0.005,-0.080,-0.840,1.100,9.700,0.292,0.058,-0.041,-0.954
634,44.915,-0.900,1.080,9.610,-69.562,-55.094,-43.406,0.032,0.062,-0.031,145.875,-4.938,-6.500,-0.075,-0.020,-0.060,-0.840,1.100,9.700,0.292,0.058,-0.041,-0.954
635,44.985,-0.910,1.100,9.635,-69.562,-54.875,-42.562,0.062,0.000,0.032,145.875,-4.938,-6.500,-0.050,-0.015,-0.095,-0.840,1.100,9.700,0.292,0.058,-0.041,-0.954
636,45.055,-0.925,1.095,9.630,-69.969,-55.062,-42.562,0.031,-0.093,-0.032,145.875,-4.938,-6.500,-0.075,-0.005,-0.095,-0.840,1.100,9.700,0.292,0.058,-0.041,-0.954
637,45.124,-0.940,1.070,9.640,-70.188,-55.062,-42.812,-0.032,-0.093,-0.032,145.875,-4.938,-6.500,-0.075,-0.025,-0.085,-0.840,1.100,9.700,0.292,0.058,-0.041,-0.954
637,45.124,-0.940,1.070,9.640,-70.188,-55.062,-42.812,-0.032,-0.093,-0.032,145.875,-4.938,-6.500,-0.075,-0.025,-0.085,-0.840,1.100,9.700,0.292,0.058,-0.041,-0.954
638,45.194,-0.935,1.085,9.620,-69.969,-55.062,-43.281,-0.062,-0.157,0.032,145.875,-4.938,-6.500,-0.090,-0.025,-0.070,-0.840,1.100,9.700,0.292,0.058,-0.041,-0.954
639,45.265,162.855,1.105,9.710,-69.969,-54.656,-42.688,-0.031,-0.125,-0.031,145.875,-4.938,-6.500,-0.085,-0.010,-0.075,-0.840,1.100,9.700,0.292,0.058,-0.041,-0.954
640,45.336,162.940,1.090,9.630,-69.969,-55.000,-42.062,0.000,-0.156,0.062,145.875,-4.938,-6.500,-0.060,-0.005,-0.080,-0.840,1.100,9.700,0.292,0.058,-0.041,-0.954
641,45.406,-0.910,1.095,9.620,-70.125,-55.625,-42.406,0.000,-0.094,0.062,145.875,-4.938,-6.500,-0.055,0.000,-0.095,-0.840,1.100,9.700,0.292,0.058,-0.041,-0.954
642,45.476,-0.920,1.095,9.625,-70.344,-55.094,-43.406,-0.031,-0.188,0.031,145.875,-4.938,-6.500,-0.070,-0.010,-0.095,-0.840,1.100,9.700,0.292,0.058,-0.041,-0.954
643,45.546,-0.915,1.080,9.600,-70.344,-55.219,-44.062,-0.031,-0.125,0.062,145.875,-4.938,-6.500,-0.070,-0.025,-0.075,-0.840,1.100,9.700,0.292,0.058,-0.041,-0.954
643,45.546,-0.915,1.080,9.600,-70.344,-55.219,-44.062,-0.031,-0.125,0.062,145.875,-4.938,-6.500,-0.070,-0.025,-0.075,-0.840,1.100,9.700,0.292,0.058,-0.041,-0.954
644,45.617,-0.925,1.085,9.605,-70.500,-55.406,-44.062,-0.031,-0.031,0.062,145.875,-4.938,-6.500,-0.070,-0.015,-0.075,-0.840,1.100,9.700,0.292,0.058,-0.041,-0.954
645,45.687,-0.910,1.090,9.605,-69.938,-55.406,-43.062,-0.031,0.000,-0.032,145.875,-4.938,-6.500,-0.080,-0.015,-0.080,-0.840,1.100,9.700,0.292,0.058,-0.041,-0.954
646,45.758,-0.925,1.075,9.615,-69.562,-55.406,-42.812,0.032,-0.094,-0.032,145.875,-4.938,-6.500,-0.080,-0.015,-0.070,-0.840,1.100,9.700,0.292,0.058,-0.041,-0.954
647,45.828,-0.925,1.085,9.595,-69.375,-55.406,-43.156,0.125,0.031,0.000,145.875,-4.938,-6.500,-0.080,0.000,-0.060,-0.840,1.100,9.700,0.292,0.058,-0.041,-0.954
648,45.899,-0.925,1.105,9.610,-69.375,-55.406,-42.812,0.093,-0.031,-0.031,145.875,-4.938,-6.500,-0.070,0.000,-0.085,-0.840,1.100,9.700,0.292,0.058,-0.041,-0.954
649,45.971,-0.875,1.110,9.545,-69.750,-54.875,-42.812,0.031,-0.094,-0.062,145.875,-4.938,-6.500,-0.065,0.005,-0.100,-0.840,1.100,9.700,0.292,0.058,-0.041,-0.954
649,45.971,-0.875,1.110,9.545,-69.750,-54.875,-42.812,0.031,-0.094,-0.062,145.875,-4.938,-6.500,-0.065,0.005,-0.100,-0.840,1.100,9.700,0.292,0.058,-0.041,-0.954
650,46.042,-0.915,1.095,9.605,-69.969,-54.875,-42.625,0.000,0.062,-0.032,145.875,-4.938,-6.500,-0.070,-0.005,-0.095,-0.840,1.100,9.700,0.292,0.058,-0.041,-0.954
651,46.113,-0.935,1.055,9.650,-70.188,-54.656,-42.469,-0.031,0.125,0.031,145.875,-4.938,-6.500,-0.085,-0.035,-0.055,-0.840,1.100,9.700,0.292,0.058,-0.041,-0.954
652,46.183,-0.935,1.075,9.640,-69.969,-54.250,-42.062,0.000,0.094,-0.031,145.875,-4.938,-6.500,-0.085,-0.025,-0.060,-0.840,1.100,9.700,0.292,0.058,-0.041,-0.954
653,46.254,-0.935,1.105,9.650,-69.750,-54.656,-42.468,-0.032,0.094,-0.125,145.875,-4.938,-6.500,-0.085,0.000,-0.045,-0.840,1.100,9.700,0.292,0.058,-0.041,-0.954
654,46.326,-0.900,1.095,9.635,-70.125,-55.281,-43.281,-0.093,0.062,-0.063,145.875,-4.938,-6.500,-0.080,-0.005,-0.015,-0.840,1.100,9.700,0.292,0.058,-0.041,-0.954
655,46.398,-0.910,1.095,9.620,-70.344,-55.500,-43.500,-0.031,0.000,0.000,145.875,-4.938,-6.500,-0.060,-0.015,-0.080,-0.840,1.100,9.700,0.292,0.058,-0.041,-0.954
655,46.398,-0.910,1.095,9.620,-70.344,-55.500,-43.500,-0.031,0.000,0.000,145.875,-4.938,-6.500,-0.060,-0.015,-0.080,-0.840,1.100,9.700,0.292,0.058,-0.041,-0.954
656,46.469,-0.925,1.110,9.605,-70.188,-55.625,-43.281,-0.031,0.093,0.032,145.875,-4.938,-6.500,-0.075,-0.005,-0.100,-0.840,1.100,9.700,0.292,0.058,-0.041,-0.954
657,46.539,-0.915,1.095,9.620,-69.969,-55.406,-43.468,-0.031,-0.250,0.157,145.875,-4.938,-6.500,-0.075,-0.005,-0.090,-0.840,1.100,9.700,0.292,0.058,-0.041,-0.954
658,46.612,-0.920,1.100,9.610,-69.375,-55.062,-43.218,-0.094,-0.093,0.032,145.875,-4.938,-6.500,-0.070,-0.015,-0.095,-0.840,1.100,9.700,0.292,0.058,-0.041,-0.954
659,46.684,-0.905,1.125,9.550,-70.125,-54.656,-43.156,-0.063,-0.062,-0.093,145.875,-4.938,-6.500,-0.075,0.000,-0.105,-0.840,1.100,9.700,0.292,0.058,-0.041,-0.954
660,46.756,-0.925,1.095,9.620,-70.500,-54.250,-42.812,0.000,0.094,-0.062,145.875,-4.938,-6.500,-0.075,-0.005,-0.080,-0.840,1.100,9.700,0.292,0.058,-0.041,-0.954
661,46.827,-0.920,1.075,9.635,-69.969,-54.656,-42.688,-0.031,0.063,0.032,145.875,-4.938,-6.500,-0.125,-0.015,0.040,-0.840,1.100,9.700,0.292,0.058,-0.042,-0.954
661,46.827,-0.920,1.075,9.635,-69.969,-54.656,-42.688,-0.031,0.063,0.032,145.875,-4.938,-6.500,-0.125,-0.015,0.040,-0.840,1.100,9.700,0.292,0.058,-0.042,-0.954
662,46.899,-0.925,1.100,9.615,-70.344,-55.062,-43.500,0.000,0.032,0.093,145.875,-4.938,-6.500,-0.070,-0.005,-0.095,-0.840,1.100,9.700,0.292,0.058,-0.042,-0.954
663,46.973,-0.920,1.110,9.605,-70.125,-55.406,-43.281,0.031,0.250,0.031,145.875,-4.938,-6.500,-0.080,0.000,-0.090,-0.840,1.100,9.700,0.292,0.058,-0.042,-0.954
664,47.045,-0.840,1.075,9.495,-69.750,-55.000,-43.062,0.062,-0.032,-0.062,145.875,-4.938,-6.500,-0.065,-0.020,-0.085,-0.840,1.100,9.700,0.292,0.058,-0.042,-0.954
665,47.116,-0.915,1.080,9.610,-69.562,-54.469,-42.406,0.031,-0.032,-0.093,145.875,-4.938,-6.500,-0.070,-0.020,-0.095,-0.840,1.100,9.700,0.292,0.058,-0.042,-0.954
666,47.183,-0.985,1.105,9.730,-70.125,-54.875,-42.375,-0.031,0.000,-0.031,145.875,-4.938,-6.500,-0.080,-0.015,-0.085,-0.840,1.100,9.700,0.292,0.058,-0.042,-0.954
667,47.254,-0.915,1.080,9.630,-70.312,-54.875,-43.438,-0.031,-0.062,0.000,145.875,-4.938,-6.500,-0.075,-0.035,-0.070,-0.840,1.100,9.700,0.292,0.058,-0.042,-0.954
667,47.254,-0.915,1.080,9.630,-70.312,-54.875,-43.438,-0.031,-0.062,0.000,145.875,-4.938,-6.500,-0.075,-0.035,-0.070,-0.840,1.100,9.700,0.292,0.058,-0.042,-0.954
668,47.326,-0.860,1.085,9.515,-69.969,-54.875,-43.218,0.031,-0.031,0.031,145.875,-4.938,-6.500,-0.075,-0.020,-0.070,-0.840,1.100,9.700,0.292,0.058,-0.042,-0.954
669,47.398,-0.930,1.100,9.620,-69.969,-55.062,-42.562,0.000,0.063,-0.032,145.875,-4.938,-6.500,-0.080,-0.005,-0.080,-0.840,1.100,9.700,0.292,0.058,-0.042,-0.954
670,47.470,-0.915,1.090,9.620,-69.969,-54.875,-42.812,-0.031,-0.031,0.032,145.875,-4.938,-6.500,-0.070,-0.010,-0.080,-0.840,1.100,9.700,0.292,0.058,-0.042,-0.954
671,47.539,-0.910,1.110,9.610,-69.969,-54.875,-42.656,0.000,-0.125,0.125,145.875,-4.938,-6.500,-0.070,0.005,-0.090,-0.840,1.100,9.700,0.292,0.058,-0.042,-0.954
672,47.611,-0.920,1.125,8.965,-70.125,-55.062,-42.406,0.000,-0.156,0.031,145.875,-4.938,-6.500,-0.100,0.020,-0.025,-0.840,1.100,9.700,0.292,0.058,-0.042,-0.954
672,47.611,-0.920,1.125,8.965,-70.125,-55.062,-42.406,0.000,-0.156,0.031,145.875,-4.938,-6.500,-0.100,0.020,-0.025,-0.840,1.100,9.700,0.292,0.058,-0.042,-0.954
673,47.682,-0.925,1.115,8.965,-69.938,-54.656,-42.812,0.000,-0.031,0.000,145.875,-4.938,-6.500,-0.065,0.005,-0.070,-0.840,1.100,9.700,0.292,0.058,-0.042,-0.954
674,47.755,-0.975,1.090,9.700,-69.375,-54.875,-42.281,0.062,0.000,0.156,145.875,-4.938,-6.500,-0.075,-0.020,-0.085,-0.840,1.100,9.700,0.292,0.058,-0.042,-0.954
675,47.826,-0.920,1.085,9.625,-69.375,-55.281,-42.281,0.000,0.062,0.125,145.875,-4.938,-6.500,-0.070,-0.030,-0.075,-0.840,1.100,9.700,0.292,0.058,-0.042,-0.954
676,47.898,-0.915,1.110,9.590,-69.781,-55.062,-38.812,-0.032,0.157,0.032,145.875,-4.938,1017.500,-0.080,-0.010,-0.075,-0.840,1.100,9.700,0.292,0.058,-0.042,-0.954
677,47.969,-0.940,1.095,9.625,-70.188,-55.281,-38.406,0.093,0.125,0.062,145.875,-4.938,1017.500,-0.090,-0.005,-0.070,-0.840,1.100,9.700,0.292,0.058,-0.042,-0.954
678,48.037,-0.935,1.075,9.670,-69.969,-55.094,-42.250,0.188,-0.094,0.000,145.875,-4.938,-6.500,-0.065,-0.020,-0.065,-0.840,1.100,9.700,0.292,0.058,-0.042,-0.954
679,48.108,-0.915,1.085,9.620,-70.312,-54.469,-42.875,0.156,-0.062,-0.062,145.875,-4.938,-6.500,-0.045,-0.020,-0.070,-0.840,1.100,9.700,0.292,0.058,-0.042,-0.954
679,48.108,-0.915,1.085,9.620,-70.312,-54.469,-42.875,0.156,-0.062,-0.062,145.875,-4.938,-6.500,-0.045,-0.020,-0.070,-0.840,1.100,9.700,0.292,0.058,-0.042,-0.954
680,48.180,-0.910,1.080,9.570,-70.531,-54.875,-43.281,0.281,-0.094,0.000,145.875,-4.938,-6.500,-0.065,-0.025,-0.075,-0.840,1.100,9.700,0.292,0.058,-0.042,-0.954
681,48.251,-0.915,1.105,9.545,-69.781,-55.500,-42.812,0.156,-0.187,0.032,145.875,-4.938,-6.500,-0.070,0.000,-0.145,-0.840,1.100,9.700,0.292,0.058,-0.042,-0.954
682,48.323,-0.925,1.145,9.590,-69.781,-55.281,-42.625,-0.094,0.250,-0.093,145.875,-4.906,-6.500,-0.080,0.040,-0.105,-0.840,1.100,9.700,0.292,0.058,-0.042,-0.954
683,48.392,-0.915,1.110,9.625,-69.594,-55.281,-42.875,-0.031,0.250,-0.157,145.875,-4.875,-6.500,-0.075,0.010,-0.075,-0.840,1.100,9.700,0.292,0.058,-0.042,-0.954
684,48.464,-0.915,1.095,9.620,-69.594,-55.625,-43.281,-0.062,-0.187,-0.063,145.875,-4.875,-6.500,-0.025,-0.015,-0.155,-0.840,1.100,9.700,0.292,0.058,-0.042,-0.954
684,48.464,-0.915,1.095,9.620,-69.594,-55.625,-43.281,-0.062,-0.187,-0.063,145.875,-4.875,-6.500,-0.025,-0.015,-0.155,-0.840,1.100,9.700,0.292,0.058,-0.042,-0.954
685,48.535,-0.910,1.105,9.640,-69.969,-55.219,-43.625,-0.031,-0.062,-0.032,145.875,-4.875,-6.500,-0.075,0.010,-0.085,-0.840,1.100,9.700,0.292,0.058,-0.042,-0.954
686,48.606,-0.925,1.095,9.635,-69.562,-54.469,-43.406,-0.031,0.032,-0.062,145.875,-4.875,-6.500,-0.075,-0.005,-0.095,-0.840,1.100,9.700,0.292,0.058,-0.042,-0.954
687,48.683,-0.985,1.115,9.690,-69.188,-54.875,-42.875,-0.093,-0.062,-0.062,145.875,-4.875,-6.500,-0.080,-0.005,-0.095,-0.840,1.100,9.700,0.292,0.058,-0.042,-0.954
688,48.754,-0.975,1.130,9.710,-69.375,-55.094,-42.875,-0.093,0.000,-0.125,145.875,-4.875,-6.500,-0.135,0.020,0.000,-0.840,1.100,9.700,0.292,0.058,-0.042,-0.954
689,48.825,-0.910,1.100,9.610,-69.750,-55.094,-43.281,-0.062,-0.031,-0.062,145.875,-4.875,-6.500,-0.065,-0.005,-0.090,-0.840,1.100,9.700,0.292,0.058,-0.042,-0.954
690,48.894,-0.925,1.095,9.610,-69.562,-55.094,-43.031,0.000,0.063,0.031,145.875,-4.875,-6.500,-0.080,-0.010,-0.090,-0.840,1.100,9.700,0.292,0.058,-0.042,-0.954
690,48.894,-0.925,1.095,9.610,-69.562,-55.094,-43.031,0.000,0.063,0.031,145.875,-4.875,-6.500,-0.080,-0.010,-0.090,-0.840,1.100,9.700,0.292,0.058,-0.042,-0.954
691,48.966,-0.940,1.095,9.620,-69.375,-54.875,-42.562,0.031,0.032,-0.032,145.875,-4.875,-6.500,-0.120,0.005,-0.035,-0.840,1.100,9.700,0.292,0.058,-0.042,-0.954
691,48.966,-0.940,1.095,9.620,-69.375,-54.875,-42.562,0.031,0.032,-0.032,145.875,-4.875,-6.500,-0.120,0.005,-0.035,-0.840,1.100,9.700,0.292,0.058,-0.042,-0.954
691,48.966,-0.940,1.095,9.620,-69.375,-54.875,-42.562,0.031,0.032,-0.032,145.875,-4.875,-6.500,-0.120,0.005,-0.035,-0.840,1.100,9.700,0.292,0.058,-0.042,-0.954
691,48.966,-0.940,1.095,9.620,-69.375,-54.875,-42.562,0.031,0.032,-0.032,145.875,-4.875,-6.500,-0.120,0.005,-0.035,-0.840,1.100,9.700,0.292,0.058,-0.042,-0.954
691,48.966,-0.940,1.095,9.620,-69.375,-54.875,-42.562,0.031,0.032,-0.032,145.875,-4.875,-6.500,-0.120,0.005,-0.035,-0.840,1.100,9.700,0.292,0.058,-0.042,-0.954
691,48.966,-0.940,1.095,9.620,-69.375,-54.875,-42.562,0.031,0.032,-0.032,145.875,-4.875,-6.500,-0.120,0.005,-0.035,-0.840,1.100,9.700,0.292,0.058,-0.042,-0.954
691,48.966,-0.940,1.095,9.620,-69.375,-54.875,-42.562,0.031,0.032,-0.032,145.875,-4.875,-6.500,-0.120,0.005,-0.035,-0.840,1.100,9.700,0.292,0.058,-0.042,-0.954
691,48.966,-0.940,1.095,9.620,-69.375,-54.875,-42.562,0.031,0.032,-0.032,145.875,-4.875,-6.500,-0.120,0.005,-0.035,-0.840,1.100,9.700,0.292,0.058,-0.042,-0.954
691,48.966,-0.940,1.095,9.620,-69.375,-54.875,-42.562,0.031,0.032,-0.032,145.875,-4.875,-6.500,-0.120,0.005,-0.035,-0.840,1.100,9.700,0.292,0.058,-0.042,-0.954
691,48.966,-0.940,1.095,9.620,-69.375,-54.875,-42.562,0.031,0.032,-0.032,145.875,-4.875,-6.500,-0.120,0.005,-0.035,-0.840,1.100,9.700,0.292,0.058,-0.042,-0.954
691,48.966,-0.940,1.095,9.620,-69.375,-54.875,-42.562,0.031,0.032,-0.032,145.875,-4.875,-6.500,-0.120,0.005,-0.035,-0.840,1.100,9.700,0.292,0.058,-0.042,-0.954
691,48.966,-0.940,1.095,9.620,-69.375,-54.875,-42.562,0.031,0.032,-0.032,145.875,-4.875,-6.500,-0.120,0.005,-0.035,-0.840,1.100,9.700,0.292,0.058,-0.042,-0.954
691,48.966,-0.940,1.095,9.620,-69.375,-54.875,-42.562,0.031,0.032,-0.032,145.875,-4.875,-6.500,-0.120,0.005,-0.035,-0.840,1.100,9.700,0.292,0.058,-0.042,-0.954
691,48.966,-0.940,1.095,9.620,-69.375,-54.875,-42.562,0.031,0.032,-0.032,145.875,-4.875,-6.500,-0.120,0.005,-0.035,-0.840,1.100,9.700,0.292,0.058,-0.042,-0.954
691,48.966,-0.940,1.095,9.620,-69.375,-54.875,-42.562,0.031,0.032,-0.032,145.875,-4.875,-6.500,-0.120,0.005,-0.035,-0.840,1.100,9.700,0.292,0.058,-0.042,-0.954
691,48.966,-0.940,1.095,9.620,-69.375,-54.875,-42.562,0.031,0.032,-0.032,145.875,-4.875,-6.500,-0.120,0.005,-0.035,-0.840,1.100,9.700,0.292,0.058,-0.042,-0.954
691,48.966,-0.940,1.095,9.620,-69.375,-54.875,-42.562,0.031,0.032,-0.032,145.875,-4.875,-6.500,-0.120,0.005,-0.035,-0.840,1.100,9.700,0.292,0.058,-0.042,-0.954
691,48.966,-0.940,1.095,9.620,-69.375,-54.875,-42.562,0.031,0.032,-0.032,145.875,-4.875,-6.500,-0.120,0.005,-0.035,-0.840,1.100,9.700,0.292,0.058,-0.042,-0.954
691,48.966,-0.940,1.095,9.620,-69.375,-54.875,-42.562,0.031,0.032,-0.032,145.875,-4.875,-6.500,-0.120,0.005,-0.035,-0.840,1.100,9.700,0.292,0.058,-0.042,-0.954
691,48.966,-0.940,1.095,9.620,-69.375,-54.875,-42.562,0.031,0.032,-0.032,145.875,-4.875,-6.500,-0.120,0.005,-0.035,-0.840,1.100,9.700,0.292,0.058,-0.042,-0.954
691,48.966,-0.940,1.095,9.620,-69.375,-54.875,-42.562,0.031,0.032,-0.032,145.875,-4.875,-6.500,-0.120,0.005,-0.035,-0.840,1.100,9.700,0.292,0.058,-0.042,-0.954
691,48.966,-0.940,1.095,9.620,-69.375,-54.875,-42.562,0.031,0.032,-0.032,145.875,-4.875,-6.500,-0.120,0.005,-0.035,-0.840,1.100,9.700,0.292,0.058,-0.042,-0.954
691,48.966,-0.940,1.095,9.620,-69.375,-54.875,-42.562,0.031,0.032,-0.032,145.875,-4.875,-6.500,-0.120,0.005,-0.035,-0.840,1.100,9.700,0.292,0.058,-0.042,-0.954
691,48.966,-0.940,1.095,9.620,-69.375,-54.875,-42.562,0.031,0.032,-0.032,145.875,-4.875,-6.500,-0.120,0.005,-0.035,-0.840,1.100,9.700,0.292,0.058,-0.042,-0.954
691,48.966,-0.940,1.095,9.620,-69.375,-54.875,-42.562,0.031,0.032,-0.032,145.875,-4.875,-6.500,-0.120,0.005,-0.035,-0.840,1.100,9.700,0.292,0.058,-0.042,-0.954
691,48.966,-0.940,1.095,9.620,-69.375,-54.875,-42.562,0.031,0.032,-0.032,145.875,-4.875,-6.500,-0.120,0.005,-0.035,-0.840,1.100,9.700,0.292,0.058,-0.042,-0.954
691,48.966,-0.940,1.095,9.620,-69.375,-54.875,-42.562,0.031,0.032,-0.032,145.875,-4.875,-6.500,-0.120,0.005,-0.035,-0.840,1.100,9.700,0.292,0.058,-0.042,-0.954
691,48.966,-0.940,1.095,9.620,-69.375,-54.875,-42.562,0.031,0.032,-0.032,145.875,-4.875,-6.500,-0.120,0.005,-0.035,-0.840,1.100,9.700,0.292,0.058,-0.042,-0.954
691,48.966,-0.940,1.095,9.620,-69.375,-54.875,-42.562,0.031,0.032,-0.032,145.875,-4.875,-6.500,-0.120,0.005,-0.035,-0.840,1.100,9.700,0.292,0.058,-0.042,-0.954
691,48.966,-0.940,1.095,9.620,-69.375,-54.875,-42.562,0.031,0.032,-0.032,145.875,-4.875,-6.500,-0.120,0.005,-0.035,-0.840,1.100,9.700,0.292,0.058,-0.042,-0.954
691,48.966,-0.940,1.095,9.620,-69.375,-54.875,-42.562,0.031,0.032,-0.032,145.875,-4.875,-6.500,-0.120,0.005,-0.035,-0.840,1.100,9.700,0.292,0.058,-0.042,-0.954
691,48.966,-0.940,1.095,9.620,-69.375,-54.875,-42.562,0.031,0.032,-0.032,145.875,-4.875,-6.500,-0.120,0.005,-0.035,-0.840,1.100,9.700,0.292,0.058,-0.042,-0.954
691,48.966,-0.940,1.095,9.620,-69.375,-54.875,-42.562,0.031,0.032,-0.032,145.875,-4.875,-6.500,-0.120,0.005,-0.035,-0.840,1.100,9.700,0.292,0.058,-0.042,-0.954
691,48.966,-0.940,1.095,9.620,-69.375,-54.875,-42.562,0.031,0.032,-0.032,145.875,-4.875,-6.500,-0.120,0.005,-0.035,-0.840,1.100,9.700,0.292,0.058,-0.042,-0.954
691,48.966,-0.940,1.095,9.620,-69.375,-54.875,-42.562,0.031,0.032,-0.032,145.875,-4.875,-6.500,-0.120,0.005,-0.035,-0.840,1.100,9.700,0.292,0.058,-0.042,-0.954
691,48.966,-0.940,1.095,9.620,-69.375,-54.875,-42.562,0.031,0.032,-0.032,145.875,-4.875,-6.500,-0.120,0.005,-0.035,-0.840,1.100,9.700,0.292,0.058,-0.042,-0.954
691,48.966,-0.940,1.095,9.620,-69.375,-54.875,-42.562,0.031,0.032,-0.032,145.875,-4.875,-6.500,-0.120,0.005,-0.035,-0.840,1.100,9.700,0.292,0.058,-0.042,-0.954
691,48.966,-0.940,1.095,9.620,-69.375,-54.875,-42.562,0.031,0.032,-0.032,145.875,-4.875,-6.500,-0.120,0.005,-0.035,-0.840,1.100,9.700,0.292,0.058,-0.042,-0.954
691,48.966,-0.940,1.095,9.620,-69.375,-54.875,-42.562,0.031,0.032,-0.032,145.875,-4.875,-6.500,-0.120,0.005,-0.035,-0.840,1.100,9.700,0.292,0.058,-0.042,-0.954
691,48.966,-0.940,1.095,9.620,-69.375,-54.875,-42.562,0.031,0.032,-0.032,145.875,-4.875,-6.500,-0.120,0.005,-0.035,-0.840,1.100,9.700,0.292,0.058,-0.042,-0.954
691,48.966,-0.940,1.095,9.620,-69.375,-54.875,-42.562,0.031,0.032,-0.032,145.875,-4.875,-6.500,-0.120,0.005,-0.035,-0.840,1.100,9.700,0.292,0.058,-0.042,-0.954
691,48.966,-0.940,1.095,9.620,-69.375,-54.875,-42.562,0.031,0.032,-0.032,145.875,-4.875,-6.500,-0.120,0.005,-0.035,-0.840,1.100,9.700,0.292,0.058,-0.042,-0.954
691,48.966,-0.940,1.095,9.620,-69.375,-54.875,-42.562,0.031,0.032,-0.032,145.875,-4.875,-6.500,-0.120,0.005,-0.035,-0.840,1.100,9.700,0.292,0.058,-0.042,-0.954
691,48.966,-0.940,1.095,9.620,-69.375,-54.875,-42.562,0.031,0.032,-0.032,145.875,-4.875,-6.500,-0.120,0.005,-0.035,-0.840,1.100,9.700,0.292,0.058,-0.042,-0.954
691,48.966,-0.940,1.095,9.620,-69.375,-54.875,-42.562,0.031,0.032,-0.032,145.875,-4.875,-6.500,-0.120,0.005,-0.035,-0.840,1.100,9.700,0.292,0.058,-0.042,-0.954
691,48.966,-0.940,1.095,9.620,-69.375,-54.875,-42.562,0.031,0.032,-0.032,145.875,-4.875,-6.500,-0.120,0.005,-0.035,-0.840,1.100,9.700,0.292,0.058,-0.042,-0.954
691,48.966,-0.940,1.095,9.620,-69.375,-54.875,-42.562,0.031,0.032,-0.032,145.875,-4.875,-6.500,-0.120,0.005,-0.035,-0.840,1.100,9.700,0.292,0.058,-0.042,-0.954
691,48.966,-0.940,1.095,9.620,-69.375,-54.875,-42.562,0.031,0.032,-0.032,145.875,-4.875,-6.500,-0.120,0.005,-0.035,-0.840,1.100,9.700,0.292,0.058,-0.042,-0.954
691,48.966,-0.940,1.095,9.620,-69.375,-54.875,-42.562,0.031,0.032,-0.032,145.875,-4.875,-6.500,-0.120,0.005,-0.035,-0.840,1.100,9.700,0.292,0.058,-0.042,-0.954
691,48.966,-0.940,1.095,9.620,-69.375,-54.875,-42.562,0.031,0.032,-0.032,145.875,-4.875,-6.500,-0.120,0.005,-0.035,-0.840,1.100,9.700,0.292,0.058,-0.042,-0.954
691,48.966,-0.940,1.095,9.620,-69.375,-54.875,-42.562,0.031,0.032,-0.032,145.875,-4.875,-6.500,-0.120,0.005,-0.035,-0.840,1.100,9.700,0.292,0.058,-0.042,-0.954
691,48.966,-0.940,1.095,9.620,-69.375,-54.875,-42.562,0.031,0.032,-0.032,145.875,-4.875,-6.500,-0.120,0.005,-0.035,-0.840,1.100,9.700,0.292,0.058,-0.042,-0.954
691,48.966,-0.940,1.095,9.620,-69.375,-54.875,-42.562,0.031,0.032,-0.032,145.875,-4.875,-6.500,-0.120,0.005,-0.035,-0.840,1.100,9.700,0.292,0.058,-0.042,-0.954
691,48.966,-0.940,1.095,9.620,-69.375,-54.875,-42.562,0.031,0.032,-0.032,145.875,-4.875,-6.500,-0.120,0.005,-0.035,-0.840,1.100,9.700,0.292,0.058,-0.042,-0.954
691,48.966,-0.940,1.095,9.620,-69.375,-54.875,-42.562,0.031,0.032,-0.032,145.875,-4.875,-6.500,-0.120,0.005,-0.035,-0.840,1.100,9.700,0.292,0.058,-0.042,-0.954
691,48.966,-0.940,1.095,9.620,-69.375,-54.875,-42.562,0.031,0.032,-0.032,145.875,-4.875,-6.500,-0.120,0.005,-0.035,-0.840,1.100,9.700,0.292,0.058,-0.042,-0.954
691,48.966,-0.940,1.095,9.620,-69.375,-54.875,-42.562,0.031,0.032,-0.032,145.875,-4.875,-6.500,-0.120,0.005,-0.035,-0.840,1.100,9.700,0.292,0.058,-0.042,-0.954
691,48.966,-0.940,1.095,9.620,-69.375,-54.875,-42.562,0.031,0.032,-0.032,145.875,-4.875,-6.500,-0.120,0.005,-0.035,-0.840,1.100,9.700,0.292,0.058,-0.042,-0.954
691,48.966,-0.940,1.095,9.620,-69.375,-54.875,-42.562,0.031,0.032,-0.032,145.875,-4.875,-6.500,-0.120,0.005,-0.035,-0.840,1.100,9.700,0.292,0.058,-0.042,-0.954
691,48.966,-0.940,1.095,9.620,-69.375,-54.875,-42.562,0.031,0.032,-0.032,145.875,-4.875,-6.500,-0.120,0.005,-0.035,-0.840,1.100,9.700,0.292,0.058,-0.042,-0.954
691,48.966,-0.940,1.095,9.620,-69.375,-54.875,-42.562,0.031,0.032,-0.032,145.875,-4.875,-6.500,-0.120,0.005,-0.035,-0.840,1.100,9.700,0.292,0.058,-0.042,-0.954
691,48.966,-0.940,1.095,9.620,-69.375,-54.875,-42.562,0.031,0.032,-0.032,145.875,-4.875,-6.500,-0.120,0.005,-0.035,-0.840,1.100,9.700,0.292,0.058,-0.042,-0.954
691,48.966,-0.940,1.095,9.620,-69.375,-54.875,-42.562,0.031,0.032,-0.032,145.875,-4.875,-6.500,-0.120,0.005,-0.035,-0.840,1.100,9.700,0.292,0.058,-0.042,-0.954
691,48.966,-0.940,1.095,9.620,-69.375,-54.875,-42.562,0.031,0.032,-0.032,145.875,-4.875,-6.500,-0.120,0.005,-0.035,-0.840,1.100,9.700,0.292,0.058,-0.042,-0.954
691,48.966,-0.940,1.095,9.620,-69.375,-54.875,-42.562,0.031,0.032,-0.032,145.875,-4.875,-6.500,-0.120,0.005,-0.035,-0.840,1.100,9.700,0.292,0.058,-0.042,-0.954
691,48.966,-0.940,1.095,9.620,-69.375,-54.875,-42.562,0.031,0.032,-0.032,145.875,-4.875,-6.500,-0.120,0.005,-0.035,-0.840,1.100,9.700,0.292,0.058,-0.042,-0.954
691,48.966,-0.940,1.095,9.620,-69.375,-54.875,-42.562,0.031,0.032,-0.032,145.875,-4.875,-6.500,-0.120,0.005,-0.035,-0.840,1.100,9.700,0.292,0.058,-0.042,-0.954
691,48.966,-0.940,1.095,9.620,-69.375,-54.875,-42.562,0.031,0.032,-0.032,145.875,-4.875,-6.500,-0.120,0.005,-0.035,-0.840,1.100,9.700,0.292,0.058,-0.042,-0.954
691,48.966,-0.940,1.095,9.620,-69.375,-54.875,-42.562,0.031,0.032,-0.032,145.875,-4.875,-6.500,-0.120,0.005,-0.035,-0.840,1.100,9.700,0.292,0.058,-0.042,-0.954
691,48.966,-0.940,1.095,9.620,-69.375,-54.875,-42.562,0.031,0.032,-0.032,145.875,-4.875,-6.500,-0.120,0.005,-0.035,-0.840,1.100,9.700,0.292,0.058,-0.042,-0.954
691,48.966,-0.940,1.095,9.620,-69.375,-54.875,-42.562,0.031,0.032,-0.032,145.875,-4.875,-6.500,-0.120,0.005,-0.035,-0.840,1.100,9.700,0.292,0.058,-0.042,-0.954
691,48.966,-0.940,1.095,9.620,-69.375,-54.875,-42.562,0.031,0.032,-0.032,145.875,-4.875,-6.500,-0.120,0.005,-0.035,-0.840,1.100,9.700,0.292,0.058,-0.042,-0.954
691,48.966,-0.940,1.095,9.620,-69.375,-54.875,-42.562,0.031,0.032,-0.032,145.875,-4.875,-6.500,-0.120,0.005,-0.035,-0.840,1.100,9.700,0.292,0.058,-0.042,-0.954
691,48.966,-0.940,1.095,9.620,-69.375,-54.875,-42.562,0.031,0.032,-0.032,145.875,-4.875,-6.500,-0.120,0.005,-0.035,-0.840,1.100,9.700,0.292,0.058,-0.042,-0.954
691,48.966,-0.940,1.095,9.620,-69.375,-54.875,-42.562,0.031,0.032,-0.032,145.875,-4.875,-6.500,-0.120,0.005,-0.035,-0.840,1.100,9.700,0.292,0.058,-0.042,-0.954
691,48.966,-0.940,1.095,9.620,-69.375,-54.875,-42.562,0.031,0.032,-0.032,145.875,-4.875,-6.500,-0.120,0.005,-0.035,-0.840,1.100,9.700,0.292,0.058,-0.042,-0.954
691,48.966,-0.940,1.095,9.620,-69.375,-54.875,-42.562,0.031,0.032,-0.032,145.875,-4.875,-6.500,-0.120,0.005,-0.035,-0.840,1.100,9.700,0.292,0.058,-0.042,-0.954
691,48.966,-0.940,1.095,9.620,-69.375,-54.875,-42.562,0.031,0.032,-0.032,145.875,-4.875,-6.500,-0.120,0.005,-0.035,-0.840,1.100,9.700,0.292,0.058,-0.042,-0.954
691,48.966,-0.940,1.095,9.620,-69.375,-54.875,-42.562,0.031,0.032,-0.032,145.875,-4.875,-6.500,-0.120,0.005,-0.035,-0.840,1.100,9.700,0.292,0.058,-0.042,-0.954
691,48.966,-0.940,1.095,9.620,-69.375,-54.875,-42.562,0.031,0.032,-0.032,145.875,-4.875,-6.500,-0.120,0.005,-0.035,-0.840,1.100,9.700,0.292,0.058,-0.042,-0.954
691,48.966,-0.940,1.095,9.620,-69.375,-54.875,-42.562,0.031,0.032,-0.032,145.875,-4.875,-6.500,-0.120,0.005,-0.035,-0.840,1.100,9.700,0.292,0.058,-0.042,-0.954
691,48.966,-0.940,1.095,9.620,-69.375,-54.875,-42.562,0.031,0.032,-0.032,145.875,-4.875,-6.500,-0.120,0.005,-0.035,-0.840,1.100,9.700,0.292,0.058,-0.042,-0.954
691,48.966,-0.940,1.095,9.620,-69.375,-54.875,-42.562,0.031,0.032,-0.032,145.875,-4.875,-6.500,-0.120,0.005,-0.035,-0.840,1.100,9.700,0.292,0.058,-0.042,-0.954
691,48.966,-0.940,1.095,9.620,-69.375,-54.875,-42.562,0.031,0.032,-0.032,145.875,-4.875,-6.500,-0.120,0.005,-0.035,-0.840,1.100,9.700,0.292,0.058,-0.042,-0.954
691,48.966,-0.940,1.095,9.620,-69.375,-54.875,-42.562,0.031,0.032,-0.032,145.875,-4.875,-6.500,-0.120,0.005,-0.035,-0.840,1.100,9.700,0.292,0.058,-0.042,-0.954
691,48.966,-0.940,1.095,9.620,-69.375,-54.875,-42.562,0.031,0.032,-0.032,145.875,-4.875,-6.500,-0.120,0.005,-0.035,-0.840,1.100,9.700,0.292,0.058,-0.042,-0.954
691,48.966,-0.940,1.095,9.620,-69.375,-54.875,-42.562,0.031,0.032,-0.032,145.875,-4.875,-6.500,-0.120,0.005,-0.035,-0.840,1.100,9.700,0.292,0.058,-0.042,-0.954
691,48.966,-0.940,1.095,9.620,-69.375,-54.875,-42.562,0.031,0.032,-0.032,145.875,-4.875,-6.500,-0.120,0.005,-0.035,-0.840,1.100,9.700,0.292,0.058,-0.042,-0.954
691,48.966,-0.940,1.095,9.620,-69.375,-54.875,-42.562,0.031,0.032,-0.032,145.875,-4.875,-6.500,-0.120,0.005,-0.035,-0.840,1.100,9.700,0.292,0.058,-0.042,-0.954
691,48.966,-0.940,1.095,9.620,-69.375,-54.875,-42.562,0.031,0.032,-0.032,145.875,-4.875,-6.500,-0.120,0.005,-0.035,-0.840,1.100,9.700,0.292,0.058,-0.042,-0.954
691,48.966,-0.940,1.095,9.620,-69.375,-54.875,-42.562,0.031,0.032,-0.032,145.875,-4.875,-6.500,-0.120,0.005,-0.035,-0.840,1.100,9.700,0.292,0.058,-0.042,-0.954
691,48.966,-0.940,1.095,9.620,-69.375,-54.875,-42.562,0.031,0.032,-0.032,145.875,-4.875,-6.500,-0.120,0.005,-0.035,-0.840,1.100,9.700,0.292,0.058,-0.042,-0.954
691,48.966,-0.940,1.095,9.620,-69.375,-54.875,-42.562,0.031,0.032,-0.032,145.875,-4.875,-6.500,-0.120,0.005,-0.035,-0.840,1.100,9.700,0.292,0.058,-0.042,-0.954
691,48.966,-0.940,1.095,9.620,-69.375,-54.875,-42.562,0.031,0.032,-0.032,145.875,-4.875,-6.500,-0.120,0.005,-0.035,-0.840,1.100,9.700,0.292,0.058,-0.042,-0.954
691,48.966,-0.940,1.095,9.620,-69.375,-54.875,-42.562,0.031,0.032,-0.032,145.875,-4.875,-6.500,-0.120,0.005,-0.035,-0.840,1.100,9.700,0.292,0.058,-0.042,-0.954
691,48.966,-0.940,1.095,9.620,-69.375,-54.875,-42.562,0.031,0.032,-0.032,145.875,-4.875,-6.500,-0.120,0.005,-0.035,-0.840,1.100,9.700,0.292,0.058,-0.042,-0.954
691,48.966,-0.940,1.095,9.620,-69.375,-54.875,-42.562,0.031,0.032,-0.032,145.875,-4.875,-6.500,-0.120,0.005,-0.035,-0.840,1.100,9.700,0.292,0.058,-0.042,-0.954
691,48.966,-0.940,1.095,9.620,-69.375,-54.875,-42.562,0.031,0.032,-0.032,145.875,-4.875,-6.500,-0.120,0.005,-0.035,-0.840,1.100,9.700,0.292,0.058,-0.042,-0.954
691,48.966,-0.940,1.095,9.620,-69.375,-54.875,-42.562,0.031,0.032,-0.032,145.875,-4.875,-6.500,-0.120,0.005,-0.035,-0.840,1.100,9.700,0.292,0.058,-0.042,-0.954
691,48.966,-0.940,1.095,9.620,-69.375,-54.875,-42.562,0.031,0.032,-0.032,145.875,-4.875,-6.500,-0.120,0.005,-0.035,-0.840,1.100,9.700,0.292,0.058,-0.042,-0.954
691,48.966,-0.940,1.095,9.620,-69.375,-54.875,-42.562,0.031,0.032,-0.032,145.875,-4.875,-6.500,-0.120,0.005,-0.035,-0.840,1.100,9.700,0.292,0.058,-0.042,-0.954
691,48.966,-0.940,1.095,9.620,-69.375,-54.875,-42.562,0.031,0.032,-0.032,145.875,-4.875,-6.500,-0.120,0.005,-0.035,-0.840,1.100,9.700,0.292,0.058,-0.042,-0.954
691,48.966,-0.940,1.095,9.620,-69.375,-54.875,-42.562,0.031,0.032,-0.032,145.875,-4.875,-6.500,-0.120,0.005,-0.035,-0.840,1.100,9.700,0.292,0.058,-0.042,-0.954
691,48.966,-0.940,1.095,9.620,-69.375,-54.875,-42.562,0.031,0.032,-0.032,145.875,-4.875,-6.500,-0.120,0.005,-0.035,-0.840,1.100,9.700,0.292,0.058,-0.042,-0.954
691,48.966,-0.940,1.095,9.620,-69.375,-54.875,-42.562,0.031,0.032,-0.032,145.875,-4.875,-6.500,-0.120,0.005,-0.035,-0.840,1.100,9.700,0.292,0.058,-0.042,-0.954
691,48.966,-0.940,1.095,9.620,-69.375,-54.875,-42.562,0.031,0.032,-0.032,145.875,-4.875,-6.500,-0.120,0.005,-0.035,-0.840,1.100,9.700,0.292,0.058,-0.042,-0.954
691,48.966,-0.940,1.095,9.620,-69.375,-54.875,-42.562,0.031,0.032,-0.032,145.875,-4.875,-6.500,-0.120,0.005,-0.035,-0.840,1.100,9.700,0.292,0.058,-0.042,-0.954
691,48.966,-0.940,1.095,9.620,-69.375,-54.875,-42.562,0.031,0.032,-0.032,145.875,-4.875,-6.500,-0.120,0.005,-0.035,-0.840,1.100,9.700,0.292,0.058,-0.042,-0.954
691,48.966,-0.940,1.095,9.620,-69.375,-54.875,-42.562,0.031,0.032,-0.032,145.875,-4.875,-6.500,-0.120,0.005,-0.035,-0.840,1.100,9.700,0.292,0.058,-0.042,-0.954
691,48.966,-0.940,1.095,9.620,-69.375,-54.875,-42.562,0.031,0.032,-0.032,145.875,-4.875,-6.500,-0.120,0.005,-0.035,-0.840,1.100,9.700,0.292,0.058,-0.042,-0.954
691,48.966,-0.940,1.095,9.620,-69.375,-54.875,-42.562,0.031,0.032,-0.032,145.875,-4.875,-6.500,-0.120,0.005,-0.035,-0.840,1.100,9.700,0.292,0.058,-0.042,-0.954
691,48.966,-0.940,1.095,9.620,-69.375,-54.875,-42.562,0.031,0.032,-0.032,145.875,-4.875,-6.500,-0.120,0.005,-0.035,-0.840,1.100,9.700,0.292,0.058,-0.042,-0.954
691,48.966,-0.940,1.095,9.620,-69.375,-54.875,-42.562,0.031,0.032,-0.032,145.875,-4.875,-6.500,-0.120,0.005,-0.035,-0.840,1.100,9.700,0.292,0.058,-0.042,-0.954
691,48.966,-0.940,1.095,9.620,-69.375,-54.875,-42.562,0.031,0.032,-0.032,145.875,-4.875,-6.500,-0.120,0.005,-0.035,-0.840,1.100,9.700,0.292,0.058,-0.042,-0.954
691,48.966,-0.940,1.095,9.620,-69.375,-54.875,-42.562,0.031,0.032,-0.032,145.875,-4.875,-6.500,-0.120,0.005,-0.035,-0.840,1.100,9.700,0.292,0.058,-0.042,-0.954
691,48.966,-0.940,1.095,9.620,-69.375,-54.875,-42.562,0.031,0.032,-0.032,145.875,-4.875,-6.500,-0.120,0.005,-0.035,-0.840,1.100,9.700,0.292,0.058,-0.042,-0.954
691,48.966,-0.940,1.095,9.620,-69.375,-54.875,-42.562,0.031,0.032,-0.032,145.875,-4.875,-6.500,-0.120,0.005,-0.035,-0.840,1.100,9.700,0.292,0.058,-0.042,-0.954
691,48.966,-0.940,1.095,9.620,-69.375,-54.875,-42.562,0.031,0.032,-0.032,145.875,-4.875,-6.500,-0.120,0.005,-0.035,-0.840,1.100,9.700,0.292,0.058,-0.042,-0.954
691,48.966,-0.940,1.095,9.620,-69.375,-54.875,-42.562,0.031,0.032,-0.032,145.875,-4.875,-6.500,-0.120,0.005,-0.035,-0.840,1.100,9.700,0.292,0.058,-0.042,-0.954
691,48.966,-0.940,1.095,9.620,-69.375,-54.875,-42.562,0.031,0.032,-0.032,145.875,-4.875,-6.500,-0.120,0.005,-0.035,-0.840,1.100,9.700,0.292,0.058,-0.042,-0.954
691,48.966,-0.940,1.095,9.620,-69.375,-54.875,-42.562,0.031,0.032,-0.032,145.875,-4.875,-6.500,-0.120,0.005,-0.035,-0.840,1.100,9.700,0.292,0.058,-0.042,-0.954
691,48.966,-0.940,1.095,9.620,-69.375,-54.875,-42.562,0.031,0.032,-0.032,145.875,-4.875,-6.500,-0.120,0.005,-0.035,-0.840,1.100,9.700,0.292,0.058,-0.042,-0.954
691,48.966,-0.940,1.095,9.620,-69.375,-54.875,-42.562,0.031,0.032,-0.032,145.875,-4.875,-6.500,-0.120,0.005,-0.035,-0.840,1.100,9.700,0.292,0.058,-0.042,-0.954
691,48.966,-0.940,1.095,9.620,-69.375,-54.875,-42.562,0.031,0.032,-0.032,145.875,-4.875,-6.500,-0.120,0.005,-0.035,-0.840,1.100,9.700,0.292,0.058,-0.042,-0.954
691,48.966,-0.940,1.095,9.620,-69.375,-54.875,-42.562,0.031,0.032,-0.032,145.875,-4.875,-6.500,-0.120,0.005,-0.035,-0.840,1.100,9.700,0.292,0.058,-0.042,-0.954
691,48.966,-0.940,1.095,9.620,-69.375,-54.875,-42.562,0.031,0.032,-0.032,145.875,-4.875,-6.500,-0.120,0.005,-0.035,-0.840,1.100,9.700,0.292,0.058,-0.042,-0.954
691,48.966,-0.940,1.095,9.620,-69.375,-54.875,-42.562,0.031,0.032,-0.032,145.875,-4.875,-6.500,-0.120,0.005,-0.035,-0.840,1.100,9.700,0.292,0.058,-0.042,-0.954
691,48.966,-0.940,1.095,9.620,-69.375,-54.875,-42.562,0.031,0.032,-0.032,145.875,-4.875,-6.500,-0.120,0.005,-0.035,-0.840,1.100,9.700,0.292,0.058,-0.042,-0.954
691,48.966,-0.940,1.095,9.620,-69.375,-54.875,-42.562,0.031,0.032,-0.032,145.875,-4.875,-6.500,-0.120,0.005,-0.035,-0.840,1.100,9.700,0.292,0.058,-0.042,-0.954
691,48.966,-0.940,1.095,9.620,-69.375,-54.875,-42.562,0.031,0.032,-0.032,145.875,-4.875,-6.500,-0.120,0.005,-0.035,-0.840,1.100,9.700,0.292,0.058,-0.042,-0.954
691,48.966,-0.940,1.095,9.620,-69.375,-54.875,-42.562,0.031,0.032,-0.032,145.875,-4.875,-6.500,-0.120,0.005,-0.035,-0.840,1.100,9.700,0.292,0.058,-0.042,-0.954
691,48.966,-0.940,1.095,9.620,-69.375,-54.875,-42.562,0.031,0.032,-0.032,145.875,-4.875,-6.500,-0.120,0.005,-0.035,-0.840,1.100,9.700,0.292,0.058,-0.042,-0.954
691,48.966,-0.940,1.095,9.620,-69.375,-54.875,-42.562,0.031,0.032,-0.032,145.875,-4.875,-6.500,-0.120,0.005,-0.035,-0.840,1.100,9.700,0.292,0.058,-0.042,-0.954
691,48.966,-0.940,1.095,9.620,-69.375,-54.875,-42.562,0.031,0.032,-0.032,145.875,-4.875,-6.500,-0.120,0.005,-0.035,-0.840,1.100,9.700,0.292,0.058,-0.042,-0.954
691,48.966,-0.940,1.095,9.620,-69.375,-54.875,-42.562,0.031,0.032,-0.032,145.875,-4.875,-6.500,-0.120,0.005,-0.035,-0.840,1.100,9.700,0.292,0.058,-0.042,-0.954
691,48.966,-0.940,1.095,9.620,-69.375,-54.875,-42.562,0.031,0.032,-0.032,145.875,-4.875,-6.500,-0.120,0.005,-0.035,-0.840,1.100,9.700,0.292,0.058,-0.042,-0.954
